time,terrain,torque_0,torque_1,torque_2,torque_3,torque_4,torque_5,torque_6,torque_7,torque_8,torque_9,torque_10,torque_11,accel_x,accel_y,accel_z,height,contact_0,contact_1,contact_2,contact_3,roll,pitch,yaw
200.04000000022705,mud,0.49757139585233756,8.57641036745644,-1.0713889675914476,-1.3218371709346588,-0.3592222320629863,-3.630164732685312,-1.5249482005270139,-2.3496957580768716,-3.331641234861637,2.738382922680686,13.43300166076867,1.1856576081832664,0.567735210057336,-0.17909907706011827,-6.640631382769311,0.2925974179340263,9.696051480644563,14.706511434007137,21.34690108044286,0.0,-0.0359713562860148,-0.12204819295872579,-0.21197380772549032
200.06000000022715,mud,0.5473523165667963,8.516881435547749,-0.43957869672473926,-1.272186989042802,-0.781463275420655,-3.1444839620169995,-1.7861529059027816,-3.495589909212701,-2.1993935245178324,2.676942721700783,13.876086503171607,4.074747826992738,-0.13794164325503291,0.620972293073001,-4.454294055429837,0.2860220359496871,11.764668475580478,23.721230924937633,46.19615462818273,0.0,-0.047918872689957086,-0.13640862548644245,-0.20523776683247807
200.08000000022724,mud,0.8532840826427203,10.540708326240408,1.8908123514834454,-1.2704753922899572,-0.9754054606483913,-2.6589925714419653,-2.3864156740721025,-6.409816591526308,0.26976061214676506,2.926432968659461,15.786527015669709,7.807308450639924,-0.9235548473104737,0.47913410974746073,-0.49355194483031856,0.27785129012651205,25.47491967175623,50.57210783842535,65.0036444718907,0.0,-0.060705150285939036,-0.14750887337474708,-0.19787118542611745
200.10000000022734,mud,2.142262757639413,12.882193462632223,5.893611339113711,-1.4745164413232792,-1.3610564503701648,-2.323805883985189,-2.759189712913578,-9.030639542468105,3.2526332827938873,3.4128250139087544,18.083969524268863,9.37603181960187,-1.353350501588949,-0.8503581996337101,2.897152341943338,0.26962737859792313,51.907718922747655,71.64687137326317,66.82290678574343,0.0,-0.0715058822308012,-0.1527549200808473,-0.18936052531975667
200.12000000022744,mud,3.4359932208297925,14.852673100485124,8.14922468579111,-1.7169863014722293,-1.7391085787020248,-2.000129482917024,-3.2937066240605173,-10.474328619838777,4.849896877367765,3.6361653372239044,19.35598968140817,10.401928491285888,-1.0396218991351422,-1.3272533281781032,3.7862765481772893,0.262538346602912,59.095673352932685,77.18776052491303,67.2582287733121,0.0,-0.07884726719602174,-0.15526577259337837,-0.17886008019021404
200.14000000022753,mud,4.352565470397024,16.384879148600987,8.87830440654485,-1.780710052450789,-2.06918013974774,-1.6335601233551582,-4.019156135167881,-11.404763060934519,6.040859300325746,3.5579023366324227,19.875428665996132,11.294501168082764,-0.43364981103473954,-1.2757367228788137,3.6842958645916153,0.25692413716466744,55.81844422919102,78.25835781075433,68.25643327136522,0.0,-0.08375091663256712,-0.157625261747253,-0.1666898381986403
200.16000000022763,mud,4.960032610992137,17.124177423594034,9.344445267337127,-1.7667597103561674,-2.3516725815533546,-1.264049256980766,-4.650171156496706,-11.529213554494802,6.981851164576819,3.4570355782820923,19.979820497869877,12.070787269586823,-0.03405750300774657,-1.076413758493179,3.4638697511018504,0.25276238844312116,54.23627374984751,75.43799683406182,69.42027389493572,0.0,-0.08673820919395046,-0.1607505713788496,-0.15342975688960617
200.18000000022772,mud,4.92648526763846,16.715998881205582,9.3185049531737,-1.8027073778789178,-2.6035654183035195,-0.9266873420691026,-4.8734792802413995,-10.45387351712152,6.72371863882358,3.4130402830788467,19.536573795013425,12.960024131942962,0.5007992027376116,-0.3432015784199974,2.427700730679432,0.2499156752947623,50.371806166901905,60.7210618132183,72.46369648726815,0.0,-0.08816787682790661,-0.1658625213927924,-0.1400028767882367
200.20000000022782,mud,3.9505618325928227,15.097765627115882,8.269956949111997,-1.7468929670356377,-2.7938517976805244,-0.4551194014775496,-4.475191425074925,-9.056324667808294,6.238749447446617,3.336308841164077,18.74272087659193,13.803691395831343,0.7217879655160885,0.4866224650108143,1.0867644702032695,0.24796169758351466,40.781684036846606,48.45251598658263,75.24591309981966,0.0,-0.08954541123414105,-0.17438809347623713,-0.12790952412436704
200.2200000002279,mud,3.0586884607329954,13.335240556758713,7.2308326883890555,-1.5599735327777648,-2.892342129768414,0.11098953279870372,-4.087555174288491,-8.39996653442787,6.699616564518693,3.263279435501202,18.178418287005666,14.42862193143231,0.45348078301409556,0.8667481264059178,0.53753281581764,0.24642220284824434,33.24335441273752,46.697999691863785,76.48844623653645,0.0,-0.09198904988859256,-0.18528770144836287,-0.11725303700390231
200.240000000228,mud,2.910457791346371,12.571513012436988,7.1179988667328296,-1.4749539468124717,-2.96030215884746,0.4518886171532297,-4.046302028000557,-8.189060639590558,7.753740829993773,3.2360307723206296,17.961748805651233,15.014554834485725,0.18367647400405407,0.8671645474899959,0.717955839985601,0.24511030562513278,32.18124319402267,49.51649756542789,77.48213866011669,0.0,-0.09543242828151773,-0.19632434266056714,-0.1070367425892402
200.2600000002281,mud,3.163433329178625,12.59220759081823,7.608273146312212,-1.4911220101239557,-3.0266074147855884,0.7348906920611451,-4.134001857953634,-7.96596989174726,9.000941702355764,3.1926462592783778,17.822125465075526,15.580123348860685,0.12536675060910665,0.8175401019793088,1.0059015937770002,0.2440902193317465,34.21849386983387,51.050940740370955,78.29625861600665,0.0,-0.09982727065204859,-0.20647770405964255,-0.09677504501053495
200.2800000002282,mud,3.4606106307888056,12.771089883469052,8.153144982314407,-1.531997603650146,-3.0753233112510276,0.9868349746953187,-4.205724858453394,-7.647542902288222,9.845367075415474,3.103022809109176,17.56882650080125,16.043018562985672,0.13028482014095447,0.7920181291816838,1.162377843649198,0.24347172283265558,36.19435811110179,51.40655693101693,78.43597799704904,0.0,-0.10529955434652938,-0.2160642620862592,-0.08660427990191562
200.3000000002283,mud,3.6096333705715455,12.756113887680682,8.48812621831364,-1.5546182490615954,-3.1008207663330287,1.2210597124877252,-4.201221041008065,-7.212497170340228,10.427414358862043,2.976814411097647,17.163627045045214,16.389571606772513,0.13233827623838784,0.8427430191221534,1.0792070573290073,0.2433048339406077,36.56391196102169,50.62827730141392,78.01766600869674,0.0,-0.1120348421266107,-0.2257073979216937,-0.07683415336065715
200.3200000002284,mud,3.6849509129713636,12.535346896456986,8.851082032915231,-1.4407195454378654,-3.0424351494019604,1.4899542358487579,-4.197581423181293,-8.223477837913446,10.339499649348157,2.9679589373403923,16.97412049120298,16.388400168610925,0.15154102309366815,0.5582047751399306,1.4790807158635875,0.24358065417112093,36.37705219765413,14.528592902722824,45.23564045284428,74.64529561755108,-0.1198836195209039,-0.23537826941954382,-0.0676872640461759
200.34000000022849,mud,4.087596574939831,12.703090121801566,9.29371477168245,-1.2995704350277726,-3.0170354119216016,1.7257659541400674,-4.378578540786901,-9.829266893898271,10.431475190460091,3.106262509874853,17.356696488353613,15.78524151446312,0.3030483778244132,-0.1159206056623581,1.7896737347214111,0.2444508080483624,38.27462489480974,16.000946894202375,0.0,8.94901994373611,-0.12701046022763346,-0.24254660677551867,-0.058667951924795486
200.36000000022858,mud,4.584721830457304,12.760229692235791,9.644741101714349,-1.2613759941074192,-3.0088723323502027,1.9008042873056663,-4.656783530440491,-10.136151511352654,10.962137842498525,3.167959774280226,17.470420241245172,15.20786158507113,0.4901424578513365,-0.49643438535615964,1.8184820268522002,0.24603528051419893,39.8395683072734,17.45246077957154,0.0,9.97545038391208,-0.1322013751782639,-0.24623723427402222,-0.04835120697882877
200.38000000022868,mud,5.006251991259545,12.566678804092373,9.794688509982677,-1.2606774463857024,-2.978191690765252,2.0442772040065993,-4.869975058795385,-9.972476233829775,10.972898355107116,3.177665291202256,17.17608561513618,14.741159978662958,0.6810944370722164,-0.5736100866907504,1.4390515291747838,0.24832060090614094,40.38947200208179,17.316971928446883,0.0,10.410013555024756,-0.13515088996692554,-0.24708487370301743,-0.03618306610771799
200.40000000022877,mud,5.275261017307263,12.167470007429154,9.76488483449582,-1.2634065098101976,-2.9093993791825534,2.170210754826911,-4.97866643621286,-9.776938357642518,10.481937594220442,3.1599218217203875,16.602476705487394,14.369628394933528,0.8082082981140393,-0.4757569292152126,0.8718002755923764,0.25115021138774557,40.027846421125616,17.27725601378593,0.0,10.567171001283034,-0.13611977447087406,-0.24603334286457368,-0.022408441662927107
200.42000000022887,mud,5.417612468313766,11.701953123393572,9.657140116594174,-1.2647332102415718,-2.8070415194352094,2.279229037490583,-5.042684362719719,-9.579707041019322,9.997943731193649,3.0876188675982323,15.938013316079413,14.058714609961024,0.8392441783347603,-0.3703052699690708,0.38218993230362197,0.2543059634742979,39.35405443526102,16.884136436399924,0.0,10.658674445186964,-0.13570353077245625,-0.243684852090233,-0.0075596593446047855
200.44000000022896,mud,5.561270572102348,11.285254776555634,9.566893052031856,-1.2547925512124654,-2.6929473178749017,2.3666699227630055,-5.122596276999743,-9.21861066338259,9.845720329986902,2.9597858872523117,15.24317361576064,13.836691774554257,0.7926524045394623,-0.3046072505655761,-0.0421617447531574,0.25759980308583946,38.990454115207136,23.929893179561365,33.441623098512295,51.73868154832631,-0.1344679408968298,-0.240279163595404,0.007978283037989226
200.46000000022906,mud,5.726009452862058,10.91554551301508,9.497024590331831,-1.269953421554886,-2.5581754011370768,2.428071949874637,-5.1220751372712545,-8.626677883801259,10.038292491849981,2.7847318112854813,14.518321922678734,13.692551793452722,0.6843026888848306,-0.22770050155062227,-0.21450629374170854,0.26088326080146623,38.9183195145341,21.096189281734514,34.531429655745946,51.02239287124022,-0.13284542932306803,-0.2361454857958518,0.023988985139432054
200.48000000022915,mud,5.922954663498826,10.616986433883046,9.459420257996847,-1.2785587900583077,-2.4114149455690734,2.471681655186069,-5.098542042897924,-8.089316084188006,10.261300229531882,2.577977976182681,13.84607409560622,13.513836692702483,0.5900423463162036,-0.19521059733812812,-0.3302984049334793,0.2640755895395237,39.159598373638644,18.532777836490098,35.97025889124106,50.23280441039973,-0.13115085350341515,-0.23145183829014482,0.04014067775443789
200.50000000022925,mud,5.9656119871474065,10.183421326901168,9.258894560181627,-1.3493075820195999,-2.357332890845518,2.4281267343206947,-4.851787178237752,-5.517633922147638,11.44474307232862,2.124449819676921,12.750847196486008,13.608296748916546,0.4281941243858187,0.21425533903624558,-1.0501544532764022,0.2670803362922743,38.122073765893994,43.662485902351094,52.45685250371661,0.0,-0.13002326004602432,-0.22684802491681733,0.056286513768190494
200.52000000022935,mud,5.846697159087919,9.625625842115134,8.884734998802736,-1.3718005476323658,-2.1394482914390993,2.455855232525237,-4.67981726018261,-4.756349610619768,11.279837094532962,1.630916613674191,11.591530017222976,13.695869444154793,0.2583536315263279,0.5335571839525379,-1.1860805516780035,0.2696737991692977,36.56456293338031,40.88166116576538,54.41877562496077,0.0,-0.13107232429362065,-0.2243507400374224,0.07177191442526566
200.54000000022944,mud,5.8651978490981165,9.274131573136163,8.669721898593096,-1.3612044015263092,-1.9212246625311638,2.4745805197937907,-4.6128014963680615,-4.396537278958142,11.587250396802109,1.2953192766087724,10.858534489959078,13.532314562857614,-0.004496489011651724,0.5133733946682973,-0.9979888322458583,0.2718071574096011,36.25828695668506,44.01167896137082,54.3624426138588,0.0,-0.13421275677776748,-0.22309032440019255,0.08567848672522292
200.56000000022954,mud,6.19954769503628,9.154997722634093,8.685666062132821,-1.290692389565047,-1.7127888890254779,2.4692895277735456,-4.623337859793446,-4.131043888790313,12.664014104263902,1.1315224113239397,10.491261955037956,13.121645370511153,-0.272971126288214,0.1457176544018511,-0.4993906940957639,0.27356870062666677,37.82688516101346,51.67947894552422,52.140305535686025,0.0,-0.13839056789511603,-0.22180506773972983,0.09822422892702175
200.58000000022963,mud,6.732438732179143,9.136763587492114,8.810842646253668,-1.2511198983887724,-1.5334320109207296,2.4325294468125422,-4.645718379950742,-3.8481771767359962,13.705030732451771,1.0148611526300562,10.267035153767377,12.534903425614246,-0.41177512609218425,-0.27314309672254294,-0.10516860051023515,0.2751463209414311,40.201265887684336,58.28976481076856,48.59952218883218,0.0,-0.14242037141983235,-0.21960196747548424,0.1102325228012225
200.60000000022973,mud,7.290919162754991,9.135360720552223,8.798099253527358,-1.2587547724303718,-1.3703538726806865,2.3688558294897746,-4.655870592831723,-3.544562836504338,14.373176302377903,0.8586634326768634,9.975350167673307,11.879693966010835,-0.4510258009198011,-0.5984304370942071,0.07940035930880407,0.27668656393410745,42.583685423637846,62.20991794321092,44.89610356110634,0.0,-0.14555328684341026,-0.21634603383441997,0.12239161845419519
200.62000000022982,mud,7.76188491308597,9.067674458979283,8.606356965208635,-1.2676575218970445,-1.196289466702476,2.296925049436439,-4.659676173829795,-3.2233879450642675,14.753122150437262,0.6517601346987996,9.569298881363594,11.207558183671363,-0.457201947781437,-0.8147010441163317,0.03701617676703385,0.2782523174500323,43.31954229501311,64.40597022908159,41.48231493418261,0.0,-0.14746508483910173,-0.2123127232360759,0.13502095683928675
200.64000000022992,mud,8.103230957998605,8.854895603565652,8.418050706816107,-1.2610207955274446,-1.0056873986927455,2.220767323748917,-4.653247158325005,-2.8517355305197816,15.0095846470096,0.4170675751389328,9.112185546325778,10.544993550592512,-0.47024072583124404,-0.9885182664597388,-0.05557655982082278,0.27982883254155283,43.41082869955043,66.06721276660355,38.43492345465781,0.0,-0.1480152235200154,-0.2076004009953496,0.14823495966863057
200.66000000023,mud,8.311343092765972,8.571476507760007,8.163162784109296,-1.2527444694974934,-0.8073409667499576,2.1372381450620885,-4.629785478981967,-2.347568217586365,15.241301008076062,0.18784210847502614,8.629016683150217,9.925144277750066,-0.45336380811913624,-1.125455586604278,-0.1526732499809904,0.2813794639663739,42.984557005692984,67.6749289451135,35.91556257830994,0.0,-0.14707263270474283,-0.20216098570409866,0.1620356533552165
200.6800000002301,mud,8.409959238752768,8.204233692144825,7.8388966429828795,-1.2377919430899016,-0.6081156676692321,2.0463994846249136,-4.529194742276688,-1.6466516741741568,15.42750757777871,0.03739621806597215,8.129504376624405,9.372284645221203,-0.3810246464767036,-1.2071820925638177,-0.26105733860358804,0.28286557525642814,42.11759649458762,68.8646902294742,34.04847080540113,0.0,-0.14440702356517213,-0.1959159728835365,0.17629242113857208
200.7000000002302,mud,8.385807511588176,7.746841411167953,7.453585933355132,-1.2405732899076098,-0.41222601965874783,1.9460626621574413,-4.3795552393984725,-0.7837309648019017,15.537963049094637,-0.05370602851562212,7.619785116646361,8.89131179567361,-0.2602905869390225,-1.2427378428788878,-0.39859065617421885,0.284242314081181,40.844391899242794,69.43500707798476,32.80723640526073,0.0,-0.13982317063993313,-0.18885449953135056,0.19071980105302416
200.7200000002303,mud,8.272327485283142,7.222193095191231,7.034749593518854,-1.25044572282515,-0.21835313267596906,1.8393373153231245,-4.207741199045024,0.16900824652964364,15.580187693563246,-0.10190003646412105,7.105504533686426,8.493291563176886,-0.12103425769604703,-1.23955167735578,-0.5381646269827591,0.2854552809390863,39.37762069088499,69.4975009303553,32.23770652105789,0.0,-0.13331000504713292,-0.18103050823870978,0.2049260203890269
200.7400000002304,mud,8.117882455887743,6.671406198366705,6.628319928213339,-1.2525412312963744,0.1250955933707172,1.7142868095191393,-4.039888803983131,1.159146459739278,15.581777198842907,-0.11442915169103562,6.60580697120591,8.18104265315796,0.0007479438567981634,-1.2012147714593833,-0.6253033784759547,0.28645070110634174,38.008499892755516,69.24976375447613,32.64842464159371,0.0,-0.12498129738420012,-0.17249149291666108,0.2184570475862934
200.7600000002305,mud,7.948303571348373,6.129260391341242,6.257241494943615,-1.2536668636272819,0.469652076009079,1.6140232756647075,-3.90981669468772,2.147067095057607,15.563068910935192,-0.10998484597970015,6.188135863703983,7.850572648970451,0.1704469928790749,-1.12412041384591,-0.6418217358459382,0.287201623117002,36.80188623536664,68.92461804803392,34.011262610635555,0.0,-0.11512722051420715,-0.16321290175371114,0.23080258725179614
200.7800000002306,mud,7.814504061115157,5.583616392132622,5.929749276340469,-1.2550419617995856,0.6669715653572923,1.499799672952637,-3.818026106725175,3.0911544592412694,15.56902611281121,-0.062145683872148916,5.704598347913293,7.655057276426089,0.2752937895182228,-1.114568067498609,-0.6545268303237072,0.287698576034013,35.950719925733104,68.8498516836065,34.84451569482511,0.0,-0.10400460835785501,-0.15324248699704832,0.24155406301474586
200.80000000023068,mud,7.711739597866189,5.052796980441817,5.656498369373353,-1.2563820481545513,0.8586396350256624,1.3860426890822488,-3.787854649513028,4.0178869728084,15.574137056433326,0.009115409231815752,5.220559465625989,7.522492732391991,0.3709852126661794,-1.1101286177706577,-0.6220960200519533,0.2879378022341241,35.42279787770954,68.80853172850604,35.944161680669005,0.0,-0.09184337329850395,-0.14257754409113566,0.2503824877040377
200.82000000023078,mud,7.641672915994221,4.511514544480444,5.430246741959937,-1.2570501757576824,1.041297344646455,1.2737117364625048,-3.817096236848076,4.921527318687981,15.566299410652004,0.10392096148525198,4.740587562520879,7.409183993825146,0.45879963343708985,-1.1265749512488998,-0.5686488499180338,0.2879326438467257,35.26323018853105,68.76120565489617,36.993318260886696,0.0,-0.0788289294038245,-0.13119422733493147,0.25702328597945917
200.84000000023087,mud,7.489729681246489,3.853072504524972,4.98070648544358,-1.0751900234894478,2.3992029659468717,2.7761315496352985,-4.0080952674045625,5.583551720429048,15.628647824333967,0.09594214848172286,3.986761350511013,7.330563472782524,0.001387791376876537,-0.7347794645268313,0.3651344693802048,0.28775471999589775,32.15674261183374,15.561983274043655,69.94985123411382,39.3755959620037,-0.06530917514347255,-0.11964372193353895,0.26140094193165475
200.86000000023097,mud,6.888788109133615,2.98510935957057,3.825974760443549,-1.0380290442099724,2.982327965575477,5.3654471239717605,-4.265601561387443,5.981712548178923,15.447183620033702,-0.0974869910150083,2.824821552143341,7.005430957278636,-1.416491688387747,-0.062622842172542,1.670456139449854,0.2878234718260618,24.695880011045244,41.968126637449295,69.17598327084286,40.934845565703036,-0.05214838198074072,-0.1103589939569734,0.26410712605615555
200.88000000023106,mud,5.847519573110355,1.8613230384129853,2.7823423558531006,-0.8829166918831959,3.821443252853678,6.316040974465718,-4.217903033018774,6.619588363565628,14.885508166365677,-0.08728953797330391,1.6755216062365215,6.524368456580012,-1.6449664110136348,0.22878281851122875,1.2620589257205153,0.28851176755544866,17.130851061831784,46.209247770442836,65.17392555248134,41.469920828446426,-0.03943863576882414,-0.10474955264869622,0.2659170567527661
200.90000000023116,mud,4.54746812188295,0.9318862807498529,1.6950818015041402,-0.6639349885006185,4.862839029211376,6.52013963427657,-4.011846363220746,7.464064933654935,14.331275621106718,0.0703169331783933,0.5387233723233903,6.1559710854651195,-1.3736514082985392,0.4657965265540745,0.43839930200582805,0.2896633172807716,9.332061797564355,44.12106151998881,61.0738113443121,42.891545078503846,-0.026800963937067466,-0.10211884306208763,0.26722956904275624
200.92000000023125,mud,3.2822230424379986,0.0803785682732513,0.8187253597870419,-0.43096438883388133,5.953524005833572,6.621787461842725,-3.7721071472292205,8.445883003260116,13.932743176995299,0.26141209474011723,-0.6078251815200404,5.933431436457218,-1.0596515978302068,0.6722050693031367,-0.12784093086514783,0.29097262030646204,3.234720605559029,41.40453123633454,58.04968810181877,45.319625864301706,-0.014315302338898484,-0.10137657772457702,0.26826242319245625
200.94000000023135,mud,2.5975903454328604,-0.4145266363254192,0.40413882871121554,-0.2935423372665893,7.081942117143909,6.675140956209303,-3.5714313038721914,9.438722784534624,13.71618591970794,0.45562806561664815,-1.7638146006319384,5.8045730830500135,-0.7293586576531675,0.7578679701850847,-0.336706661834108,0.2922291783301777,1.0692208136916836,38.141678135313875,56.55827872931226,48.24121265391906,-0.0023891257456672634,-0.10173575628119137,0.2690248966198331
200.96000000023145,mud,2.242356114983076,-0.6829838602188443,0.22766678450390287,-0.3139626525691055,8.225281402762967,6.712505171941734,-3.462569186648949,10.382623123544382,13.652687236848273,0.6098979402307554,-2.930397061151752,5.722211210520312,-0.4162579203673316,0.7843436553737984,-0.4082091493065645,0.2933484538629742,34.95479821240753,56.34820090954897,51.262885176397305,0.0,0.008484070419094044,-0.10278079868676913,0.2693170751401987
200.98000000023154,mud,2.092304243971469,-0.9575419088494881,0.172080632088486,-0.4263725299352865,9.366037461147053,6.78933759551683,-3.4033994476233453,11.30527506052361,13.668308454371974,0.7502123747317576,-4.090002682480624,5.655362044998206,-0.16424196895782825,0.749852025303397,-0.3682268904720796,0.2943072706022301,32.18589793338097,56.751996825531634,54.018532578189514,0.0,0.01812807534057838,-0.10411576903639,0.2690214412245256
201.00000000023164,mud,1.9836087964828493,-1.2160800799389992,0.1394853517983562,-0.5669768543459586,10.523411192119305,6.8051116337564626,-3.3470675624818713,12.221269011040473,13.717760847214427,0.9151386100449994,-5.247888723644372,5.61328041324621,0.15735069993092424,0.6678454490006904,-0.43173541570347684,0.29511296329866715,28.43673394029198,57.490359575449695,56.08521370963184,0.0,0.026586900929070883,-0.10539010134504163,0.2680948178153252
201.02000000023173,mud,1.624912478710458,0.36812447988715347,-4.1923342827336345,-0.7163093981647365,10.190635175534734,-0.4311501992917428,-2.7025086994889658,15.70203204188681,2.016467910953555,1.2968888817485027,-2.7470025164190224,-3.4663495774196385,0.6162511440584525,0.3889766779785874,-5.228420155240246,0.2939165957348433,15.705496813986116,29.204971206936545,24.174953654678994,0.0,0.03692708202335358,-0.11302687181164929,0.26553391991896913
201.04000000023183,mud,1.402188881065889,-0.35214672512630707,-3.6551632914068612,-0.7603841279740007,9.334310769150289,-0.4541906624183216,-2.795511978369783,15.539208975021927,2.6012784323740767,1.8806476023529872,-3.429110579002534,-2.815348206417097,0.6502116778726742,0.2358172245100861,-5.365783604942379,0.2905184349882966,12.89252920333674,29.594652104441902,22.657141527177874,0.0,0.04762534683034334,-0.12477044065132072,0.2602704484734136
201.06000000023192,mud,1.303171483972298,-0.8227622865540365,-3.1708499402196653,-0.8457663692277334,9.031802340038269,-0.004139115844957075,-2.856193110694992,15.56104173010018,4.329484077336302,2.2307633717580586,-4.47642691991639,-1.6320855832281627,0.10438863311644414,-0.18727466521845862,-4.005650189111475,0.28503942538946,13.8871162815888,42.41648609894742,30.846703377329185,0.0,0.058158507558779216,-0.13837700328522573,0.25251694886466636
201.08000000023202,mud,1.3002049256405084,-1.0695738540356503,-2.689884595311055,-1.3530556053523846,10.380344843696559,1.6963914368861328,-3.1326454634274254,16.562052616778047,7.124926588584966,2.778003760350356,-6.612480524628355,0.3734146615971081,-0.5564824710188564,-0.2866966998533564,-1.1953007752714082,0.27809322749217746,22.21913898616061,58.55154662020332,48.616875351564495,0.0,0.06827346048716598,-0.14987530703118282,0.24291502181605418
201.10000000023211,mud,1.4638219146647906,-1.4004070553979888,-2.31398353820839,-2.4548843825232334,12.702424906365225,4.542185566723957,-3.3614307078726915,18.198839123953032,9.045851993947295,3.3807927311660597,-8.678180002162915,2.806952778938321,-0.7793127431893891,0.3945675608244424,1.4637129986734745,0.2707696601885041,38.657207469983994,64.67440737412178,65.45932244652506,0.0,0.07716536603916854,-0.15652408755673952,0.23179129818010377
201.1200000002322,mud,1.6535029272010766,-1.7636434147149478,-1.9793778937732753,-3.7064594847649195,14.576887294497523,7.097561060203491,-3.539137478148511,19.349059885404237,10.245027887291513,3.890619758964675,-10.084437971444656,4.594028895420841,-0.7151432871459922,0.9162720502935325,2.913032263185216,0.2640645447646407,51.25571501782243,66.67134390216957,72.63173709442798,0.0,0.0839369423448655,-0.15994043578232528,0.21924034259607483
201.1400000002323,mud,1.7577507982674831,-2.0837213750949237,-1.6256948237196207,-4.616976846820153,15.939966127904881,8.293716469048732,-3.5108436007187684,19.840559706183583,11.182612791187225,4.467881689631104,-10.996037020106519,5.796299906250956,-0.3910025451632881,0.9967315460039452,3.1857815258471844,0.25850498419987583,52.763848726063244,67.96577778789376,73.9481069683229,0.0,0.08869695711782985,-0.162844512694457,0.20569202625771182
201.1600000002324,mud,1.7717055969007864,-2.3770158338806455,-1.267559696912647,-5.109811434286138,16.482639394028876,8.791292721535703,-3.4281522682794665,19.825920060181637,11.932337029942364,4.920667511690351,-10.842932859040994,6.469511195448028,0.06296549789874634,0.7541757465712755,2.794479807464691,0.25418002845580046,51.46332567186486,68.8774797273822,68.59561338805045,0.0,0.09191786469838224,-0.16677445169961028,0.1916832349687947
201.1800000002325,mud,1.7648990560277664,-2.616262671747039,-0.9146426018422726,-4.91877885662093,15.900506454614973,8.62081266023548,-3.387629497985548,19.313454358951773,12.690241445983272,4.946818400477451,-9.944285044302996,6.5248905934692845,0.4073294749101165,0.19688794481764127,1.9406613811018623,0.2509142076414869,46.996642548960864,71.07833895262894,58.601562258077884,0.0,0.09408252146980527,-0.17319769126533172,0.17809997753217402
201.2000000002326,mud,1.6860945198216233,-2.7776756596656114,-0.44484587013361754,-4.141406086660804,14.609330602400796,7.884453518652943,-3.347651904158254,18.710186359441927,13.57028984929543,4.682587682140429,-9.067580669707583,6.711507117066482,0.4262968810944297,-0.38736171277641507,1.2340530219997816,0.24838427182562495,39.88040341272802,74.62679953401519,52.38538027457704,0.0,0.0962214031998136,-0.18240510007802108,0.16567954156293535
201.2200000002327,mud,1.5738834649168552,-2.87242820689527,0.11347808426886175,-3.5309773219769687,13.46170583406992,7.361694479340637,-3.3411417823970067,18.395437135191095,14.449263984836096,4.4759604381737965,-8.557941673292493,7.370251672295776,0.2611459296998999,-0.7234837926872516,1.0551092417852448,0.24634090730905464,35.30229132070685,77.572075526998,51.28809943685408,0.0,0.0990024001297431,-0.19284818191009354,0.15423197412692988
201.24000000023278,mud,1.530570844712936,-2.95914103588243,0.4372564679924169,-3.42457910127881,12.969646895175721,7.428143762391919,-3.324802068473571,18.28666162141228,15.161978603709878,4.4384607009554395,-8.254981925045762,8.274382057337885,0.1542371093478421,-0.7960436741654159,1.173082067798107,0.24472185088558707,34.71243334714845,78.95937699688285,52.20471912340062,0.0,0.10261663318515116,-0.20301812239392636,0.1431893345603938
201.26000000023288,mud,1.5514567971999917,-3.037692346020185,0.716466366447484,-3.580706758846247,12.89367637405482,7.80719251546075,-3.2491524673991834,18.12151344794954,15.70650863894211,4.46315869195524,-7.914826140327893,9.288222769952064,0.17332195142940807,-0.821216942626923,1.2347169451253195,0.24356574610740045,35.78372900538417,79.35920377875091,51.87929441436215,0.0,0.10720844566110771,-0.21259840356194212,0.13229843820222514
201.28000000023297,mud,1.5671121369770926,-3.088047567938898,0.9748137583668006,-3.7468423115394014,12.861130651654074,8.154917640171753,-3.1289367212174097,17.804428024911083,16.112634513041918,4.460422361835544,-7.527814474287,10.033710084547224,0.1680766316748499,-0.8368681447216295,1.2303604688124443,0.24289852978149346,36.52612517959786,79.0329244620557,51.55187330851298,0.0,0.11303754325210852,-0.2220722777458025,0.12170530720443799
201.30000000023307,mud,1.5638225945712771,-3.110642937782396,1.2165445082985227,-3.8092767395100284,12.666640137957208,8.360932644792465,-2.987489115473105,17.36437063309047,16.398984700602306,4.408294283680608,-7.067624630000491,10.596036707962671,0.1432210782896601,-0.8965183674299941,1.0602886149033957,0.24270774557850394,36.02094483652639,78.20377840490076,50.74830629969094,0.0,0.12023806173844324,-0.2318583583450579,0.11157197410762107
201.32000000023316,mud,1.381274904423074,-3.0385834096917623,1.5096572644260653,-3.991858389303824,12.58678146513905,8.747355564756472,-3.109860867679367,17.531442547420745,16.058220218305387,4.484973660847681,-9.132032128635768,10.155730025774314,0.2155289342668816,-0.2995753653793928,1.7535896034338134,0.2430278404070075,36.86034827869971,72.52110257936856,5.545164128697475,7.898325269880532,0.1278943031835141,-0.24091700625957038,0.10212059924528707
201.34000000023326,mud,1.2927914966683085,-3.0413796007290532,1.725403712652657,-4.431229337464837,12.729195677753243,9.233779353753981,-3.2181269267825674,17.882953483829144,15.417851502614095,4.7393456532051745,-10.187135129559884,10.572419359401293,0.4183099242417613,0.3389755558560575,1.9166933101558885,0.2440400976659716,38.67717164674789,65.32533479436107,0.0,18.31643208864916,0.13414438706879084,-0.2467142770895103,0.09233579159578736
201.36000000023336,mud,1.2720700528051792,-3.0336661724517526,1.895227628755296,-4.913321714881274,12.70510691866883,9.565996276163467,-3.2564555907565436,17.825424384972095,14.91959313999506,5.0231151879423415,-10.248531053987573,10.919292803225547,0.6045568622263073,0.5889355390314779,1.7815323752658125,0.2458053026185481,39.9989894876229,61.01682799663996,0.0,18.787556181515292,0.13821745543812008,-0.24918006377879187,0.0809670531143173
201.38000000023345,mud,1.27550448855681,-2.9932919043039323,2.040050352240611,-5.268203186405728,12.44090928054469,9.667427963544288,-3.256130139717746,17.39126216265105,14.544164800275531,5.200547451212028,-10.068525102008852,10.68312163381531,0.7684810055210565,0.5707919603715277,1.3048874465284177,0.24825324917005911,40.21851046962879,57.675535591947,0.0,18.536626932092755,0.14006434419486205,-0.249177191309199,0.06782404431717017
201.40000000023355,mud,1.2734752517185914,-2.9157877988019543,2.168926430942647,-5.471441859973707,12.010147019725634,9.61570468795187,-3.2344127014115416,16.759695288620414,14.245768970862898,5.272218454866143,-9.89571058486043,10.116624652696132,0.8596908284723261,0.4414103890025149,0.7375754939512768,0.25119343258750426,39.68749434841777,55.08688334068444,0.0,18.377126943677254,0.14012311121313806,-0.24754552182576456,0.053323659411436575
201.42000000023364,mud,1.2705900787381428,-2.809348726219908,2.279109530669995,-5.592495818769522,11.556412099589679,9.5229908789717,-3.171143586586995,16.087792639651312,13.996470193421729,5.299234268807102,-9.682295027261468,9.720135175770057,0.8573506903094755,0.34457503070042844,0.3029228769674683,0.25440944538125465,39.09399003090761,53.16755539338176,0.0,17.617051339348823,0.1389788253866439,-0.24472671943573027,0.03797650694997813
201.44000000023374,mud,1.2702361597430292,-2.698290670562031,2.362458940538743,-5.727971697982053,11.163075357289161,9.459702784780806,-3.0288692707585243,15.378702576121837,13.83119647336828,5.360709612017121,-9.248651760120106,9.686668718200957,0.7904499374331381,0.2795729444198912,-0.0794805752344172,0.2577311913411176,38.85669128254983,52.09713435031311,24.101490439696498,32.51499183613578,0.1371983832432047,-0.24090469380179227,0.022081169716103254
201.46000000023383,mud,1.280021434216348,-2.561108872145363,2.4258933547610013,-5.897269160451401,10.821403922375033,9.414080863993277,-2.84125368568133,14.654319943836668,13.705552802822538,5.348257108320664,-8.659666172085814,9.89921333622362,0.6854183774493822,0.2088471055815768,-0.23210026326785377,0.26102308371053307,38.907869478731165,51.40355872308816,21.256203122899883,33.744989699684666,0.13521605228724884,-0.23643923059938754,0.005828664651316656
201.48000000023393,mud,1.2869306517276038,-2.4148057389202915,2.469600469798454,-6.095727243414965,10.536834903398555,9.390403059079208,-2.6233009904665403,13.975097151739838,13.53264033465216,5.317854918893244,-8.131491772723072,10.125683960135166,0.5901970226235491,0.18026194720863226,-0.34225562515235425,0.26421682337885916,39.209020600507294,50.57971367706669,18.688580646905226,35.2536264401994,0.13328246048509726,-0.23147421693848677,-0.010473845955406319
201.50000000023402,mud,1.3717816564249454,-2.358627159915864,2.426362636796071,-6.039688739274962,10.02587854307955,9.101754450689677,-2.0626480363722894,12.690798158388413,13.75005664687253,5.0229653633765645,-5.308603300730502,11.409503383323084,0.39985662610966116,-0.3179598707565262,-1.0535867144049518,0.2671769570050685,37.59855790567526,53.69957663298387,42.69094057793968,0.0,0.13244473276310323,-0.2271105787240845,-0.026706514800364116
201.52000000023412,mud,1.3843800056321838,-2.133926272323997,2.4587667760550147,-5.905616851041283,9.493134760909635,8.751735672164166,-1.5708066508387257,11.599737549976327,13.79908986301405,4.8645976223081995,-4.70754201138919,11.091068477922331,0.2439233242137025,-0.6302627653837628,-1.2156377258480056,0.26969563297861116,36.144540990934196,55.28197853407056,39.97205816693039,0.0,0.13411722196442424,-0.22494971214198,-0.04198979149393776
201.54000000023422,mud,1.3576298879507533,-1.9139043769123107,2.4775896626187324,-5.9854983294508814,9.184208641572154,8.581923854002303,-1.2875203941833315,10.936861779099779,13.60489579000223,4.760173216131256,-4.374519744074391,11.638401358304677,-0.05367710140294842,-0.5209172803771807,-0.9239439346743397,0.27174863199061167,36.227186484394366,54.85495797813473,44.66575941176802,0.0,0.13781267966722408,-0.2238485788721545,-0.055567538579967594
201.5600000002343,mud,1.284581400276107,-1.7123132402004462,2.469930295042367,-6.365500840369595,9.098267084265403,8.639114156611077,-1.1368299482303823,10.61469170471525,13.160106841023056,4.794269410490637,-4.107739151752821,12.788529439959182,-0.3187383065049626,-0.12247758717864853,-0.40906314467218247,0.27345903415496436,38.105009474628574,52.281542380146185,52.5700675152984,0.0,0.14237584424129524,-0.2225227642207728,-0.06787070361127265
201.5800000002344,mud,1.252815531784768,-1.5391103672531963,2.430306698800041,-6.908499060985959,9.083467964224024,8.768797438692264,-1.0089080605821172,10.38633544283293,12.557342830636227,4.846425265964395,-3.810491461404797,13.781258390814063,-0.44568059857005266,0.2783530670286878,-0.05812733176749085,0.27501857711251987,40.49126514698351,48.62124098865174,58.67215705027403,0.0,0.1466751427533151,-0.2202318043259755,-0.07977084674266119
201.6000000002345,mud,1.2628156998333129,-1.3773544191118159,2.3661715368119216,-7.46366629942362,9.07208923366207,8.724308294714644,-0.8504530690502878,10.067141271184717,11.89913500733543,4.861295048980568,-3.495106149753047,14.385173388181741,-0.48292607617187006,0.5775961787425701,0.08194586264004398,0.27655837642505143,42.705481030440325,44.94914081910049,62.099126391579176,0.0,0.15000167149969776,-0.21696581697168288,-0.09190528021730167
201.6200000002346,mud,1.2697218992298993,-1.2013121670577558,2.2954196153538504,-7.920453746559341,8.984903373790658,8.513911708190607,-0.6418973976565827,9.640203719859352,11.227065874015775,4.86539840907262,-3.166244135722833,14.735849801983036,-0.4974277545232588,0.7806127574068337,0.018345250821337707,0.27812436496800275,43.26790115395943,41.579975895711385,64.10265631981159,0.0,0.15208476802093346,-0.21301570308620033,-0.10454098985644243
201.6400000002347,mud,1.2603487791879837,-1.0085423387648822,2.2204248559446054,-8.250069379814008,8.764204748622083,8.312074245164093,-0.40747675180589016,9.173825202814694,10.56758852999469,4.857838509649425,-2.791159599833918,14.997114261577053,-0.5226467237994966,0.9521855444557623,-0.07265890284393745,0.2796940793850953,43.28525953171307,38.57272065772271,65.80476241284704,0.0,0.152806080370063,-0.20844214223065513,-0.11777951533036048
201.6600000002348,mud,1.2454973189425755,-0.8088972096614229,2.1380966068286513,-8.459944287681985,8.48161379287341,8.05450108450124,-0.18807708555341596,8.690297667335564,9.953982768421596,4.822042257960474,-2.282784831964922,15.243371548042202,-0.515062363419514,1.0873167046783387,-0.1580362811776066,0.28123167421482276,42.87349750416561,36.09256965143292,67.49054844643949,0.0,0.1520217855876672,-0.20315742819177607,-0.13163337730384322
201.68000000023488,mud,1.2361329329520805,-0.6098625678786114,2.0464204765465697,-8.561398001133991,8.118891881622341,7.73634711865684,-0.04343132133033456,8.194719910316683,9.405232328227518,4.7096205244083365,-1.5749258130139019,15.44280898015665,-0.4438649055459774,1.1764135444547437,-0.25869724779479325,0.28270263161170417,42.059226840522015,34.22928646979125,68.75528374688497,0.0,0.14946963050623377,-0.19707096060012305,-0.1459784981848448
201.70000000023498,mud,1.24171016469271,-0.4147047272287241,1.945461466604824,-8.540372032156975,7.669723759317341,7.358958967948853,0.0479507715288201,7.685658388339402,8.926950119863747,4.554941082232098,-0.7041929664571862,15.562013877645498,-0.3221345071963015,1.2167055144282914,-0.3904724896547086,0.2840653391745731,40.84030689778739,32.981604199731464,69.36985852448615,0.0,0.144999482753489,-0.19018893617835703,-0.1605268397963763
201.72000000023507,mud,1.253173638149966,-0.22145278685985043,1.8382005493012175,-8.432128921591215,7.15315367954572,6.948418641912394,0.09723620014565093,7.169661885746869,8.528008309778446,4.379837317173832,0.2530860546446725,15.610248305883498,-0.18219183302878925,1.2189971490210798,-0.5262484469580269,0.2852676071181735,39.42999304933229,32.38413870584198,69.46749144978654,0.0,0.13861232405424706,-0.18258550716070618,-0.17487657336094534
201.74000000023517,mud,1.2555675815471803,0.12168566845553383,1.7128791123804792,-8.283037366190266,6.608950708168074,6.5487233613907385,0.11128074106517627,6.668058595161858,8.211065333743726,4.209790383161747,1.2441564834252925,15.617016803065882,-0.06089292246216962,1.184792214640948,-0.6092295770739081,0.28625715999303203,38.10592335317935,32.77556847089424,69.25710010530153,0.0,0.13042622589959632,-0.17432383262727189,-0.18856226711576385
201.76000000023527,mud,1.2568834269266165,0.4660968626533192,1.6124999286709993,-8.117556845755391,6.0709408834698735,6.1813133641121345,0.10776794902737674,6.2485913200506,7.87511692551583,4.077206249351928,2.230376542713917,15.60408103949024,0.1077065759726527,1.1165268676155884,-0.6266563409685233,0.2870081272059648,36.92498134310498,34.053378908397335,68.98262026855842,0.0,0.12072994655304137,-0.16538555739476807,-0.201064488397096
201.78000000023536,mud,1.25836408287825,0.6636504674882437,1.4983663076037876,-7.985309988868309,5.527367569152403,5.854711043185761,0.06025905238672025,5.764719903857985,7.675601497636065,3.982662760382555,3.173176841812832,15.616039776029895,0.20910960358145866,1.111226993791259,-0.6385684254048338,0.2875112134936663,36.080207691172255,34.844619655325246,68.95512480789469,0.0,0.10977522116842504,-0.155819669275086,-0.21197167151414884
201.80000000023546,mud,1.2597750783893722,0.855474325273438,1.384725666851168,-7.881700206358339,4.997203937610465,5.579563179222923,-0.0114150840845052,5.282469981934642,7.540265472915834,3.949098298080288,4.099932737466723,15.62764039658058,0.3013484393951066,1.1096474325433932,-0.6062716487748528,0.28776292385595975,35.53835174872074,35.90883984932335,68.96028772884496,0.0,0.09778857755738893,-0.14561892699948312,-0.22095377338991146
201.82000000023555,mud,1.2605146515079104,1.0381837052842537,1.2725028551235145,-7.809459347526447,4.457034689029639,5.348511368285709,-0.10682397898073848,4.805875938524325,7.4259112885773595,3.9746462616093807,5.00557280356079,15.626998177544124,0.38607175917621306,1.1276924777631407,-0.5538352639719358,0.28777652166500917,35.33803455869963,36.93226155969195,68.9617012152308,0.0,0.08495341513136688,-0.13475483197526356,-0.2277478894318069
201.84000000023565,mud,1.1220756522694653,2.2246887448491424,2.280394287369949,-7.702336471191895,3.798518499888564,5.018396747234315,-0.16108194745992405,4.139137682266261,7.3556953666737535,4.112672704464759,5.740217326394796,15.674822375624068,0.22825459150408411,0.8939147256281894,0.02440711416316601,0.28759583043289794,9.318870377438179,33.25746136478118,39.043512898711526,69.92086813205569,0.0714749232853729,-0.12351899389811527,-0.2322392573495667
201.86000000023574,mud,1.0846378987540588,3.0237322278266667,4.795862116425631,-7.227529382181242,2.946504640239455,4.0319752042782415,-0.007806900561362962,3.01182068244786,7.129789971572428,4.369113073699524,6.1599467668526415,15.586058437109159,-1.1514689966913663,0.15133828290577322,1.5844948934832275,0.2875384487960003,37.43190024402463,26.925325896252108,41.250548619811326,69.92063004701544,0.05811661207924521,-0.11391703703746661,-0.2349074064835285
201.88000000023584,mud,0.9817660286435392,3.7874758205620687,6.127754646915435,-6.261089143573631,1.88502967784459,2.9426478829551432,0.03850058529530964,1.8446807560792258,6.659239916653945,4.392944885071116,6.747095663014731,15.060305762766518,-1.6166000550828925,-0.22747667630901935,1.4122444475945781,0.28806646432957084,45.25825892490475,19.107745252745325,41.816997830384146,66.19011031730663,0.04532005417749094,-0.10785005793212059,-0.23656471330825854
201.90000000023593,mud,0.791846772867282,4.808402450905744,6.410698086379328,-4.981726678649601,0.9153683607101879,1.8956935854504937,-0.09377221717724835,0.6820037001544349,6.274589905901467,4.215475810020011,7.5423886985219895,14.48592193829002,-1.3819382801551647,-0.45734003396439593,0.6223529448762325,0.28911575446181426,43.73366559506677,11.413218688830566,43.14929288140693,61.99842313501403,0.03266048676666735,-0.10493860084729914,-0.2376907349715173
201.92000000023603,mud,0.5498303053736315,5.8895420384657635,6.529039745865173,-3.619533481245443,0.09012659722200969,0.9578236317613196,-0.29785614354375023,-0.4811462850667423,6.033955235244626,3.9618075035005447,8.499707673627881,14.035017854047595,-1.069241310294768,-0.6778793617255915,-0.029320930920662614,0.29039118338526176,41.17705389400563,4.5020748527871355,45.46988982102801,58.58449464498949,0.020097539710613604,-0.10411958517643463,-0.23852519532810257
201.94000000023613,mud,0.36657519202473965,7.006247184647799,6.612092809219609,-2.7647085432841436,-0.42277970224157446,0.45235556150272593,-0.5279698343458695,-1.6475654747840347,5.899801520063046,3.7188558008240507,9.494480481407136,13.768923920401157,-0.7420765576602206,-0.7878496067506231,-0.30071011877732545,0.29165205108864084,38.188843863698104,1.4690826580246252,48.361375109654524,56.70226335653388,0.007922237812166666,-0.10448354704533146,-0.23912504584292069
201.96000000023622,mud,0.370065273551634,8.145729502948349,6.646369332372252,-2.358332872901476,-0.7211149999357223,0.2416100392883982,-0.6919580491672133,-2.8221373148706883,5.811676299359286,3.595819282790325,10.438122872998083,13.671910546264655,-0.42314290689707224,-0.8165560406994053,-0.4209623267760498,0.2927921577934505,34.95261055708592,51.339869926529545,56.24804808613315,0.0,-0.003276656064056183,-0.10558208154053014,-0.23929985869430428
201.98000000023632,mud,0.46149775116097064,9.278557246931488,6.732928955363106,-2.147555811933189,-0.9664135232506204,0.182165142538107,-0.8491881307558327,-3.992111037725584,5.7502496473335,3.5177840240119664,11.358687758350072,13.672867382170688,-0.17260799968510993,-0.778431492347126,-0.3680919325682136,0.2937757238720593,32.24280542123536,54.1495501589668,56.58470020676626,0.0,-0.013255258539757373,-0.10700721168402381,-0.23891344642142054
202.0000000002364,mud,0.6038459105193292,10.431706405621801,6.762510195613164,-2.030388291887472,-1.2236315853879582,0.14902934282545321,-1.0150004799516323,-5.1486658547603525,5.703267751375164,3.460954816590365,12.27244287559291,13.712795420578079,0.13429695924901658,-0.6896040000790894,-0.422390950256362,0.29460705857450675,28.60286893491361,56.256998561392855,57.27749402893096,0.0,-0.022002653271462294,-0.10840653042564964,-0.23790645696078166
202.0200000002365,mud,0.747524427617391,10.14048132651806,-0.4828326528420668,-1.6636465121792732,0.35925841567984573,-4.183939947835432,-1.3709304262821251,-2.6862756650984885,-3.4164453659706915,2.785314274607459,15.762561550103506,2.033154715643219,0.6250490395704756,-0.3734120972547546,-5.232182180540217,0.2934393108798782,15.599872990436673,24.194533470717484,29.262240735430048,0.0,-0.03254003076102441,-0.11618793321141299,-0.23526247686783214
202.0400000002366,mud,0.8015008236865203,9.304183134358123,-0.4921226483645693,-1.4376072604494232,-0.3634810658885448,-3.6473721600000157,-1.9537787463669825,-3.392013102904628,-2.7585902912137943,2.8791677655275323,15.581149063153031,2.6050083785067812,0.6468414118768905,-0.22492495656803432,-5.3591614894812265,0.29006887610213133,12.821654477439363,22.817193008630884,29.608079137507026,0.0,-0.043344395189461836,-0.1280969256811613,-0.22989004505136335
202.0600000002367,mud,0.8739713813414005,8.995341130836486,-0.04633308918941026,-1.3340223310147405,-0.8284809503737083,-3.1634587488045316,-2.3143620689181046,-4.443229129548013,-1.5649122267256423,2.9397156108611466,15.60727549822063,4.326543609087288,0.08531405983512586,0.17929334158981763,-4.003880363110414,0.2846196982914717,13.776833184269087,31.058065748676,42.36500305694312,0.0,-0.05393209600511136,-0.14185280435436454,-0.2220004663931476
202.0800000002368,mud,1.37339213362838,10.317785291662352,1.6325075888636125,-1.3254644935672601,-1.076391456986951,-2.6833401549234184,-2.8763891211016164,-6.54496179669207,0.4497319600515013,3.2247768027906023,16.614023875763614,7.120504682309372,-0.5758269249515957,0.26582340995896553,-1.2150903262046187,0.27770275838800734,21.959966982483092,48.63776017175162,58.48720386928549,0.0,-0.06409409862193126,-0.1534901771614238,-0.2122309186047366
202.1000000002369,mud,2.477591440790053,12.628626979822453,4.451280769478759,-1.4893337469518615,-1.4069248225907174,-2.308866521955654,-3.4950918653710654,-8.566005462778458,2.883843592278385,3.4605211681819847,18.244146004792793,9.048829111094538,-0.7692681089989828,-0.40833949781032125,1.4202229511916018,0.27039929035751903,38.160131610457235,65.24753869099558,64.73976017578507,0.0,-0.07306510260909536,-0.16029046259730112,-0.20091312596331282
202.12000000023698,mud,3.729406390518467,14.498379654656363,7.009589222211277,-1.6752053729678176,-1.7701955806304506,-1.975109259220134,-4.017160499717704,-9.959367501064035,4.676090168075735,3.635805065154978,19.384049424353645,10.258278591769015,-0.683878901035224,-0.9164618104003968,2.875203264544369,0.26369823415776616,50.860184157861966,72.29106635382891,66.88035801653301,0.0,-0.08001370969523011,-0.16385885294510275,-0.18817461306471228
202.14000000023708,mud,4.642117156313885,15.857759122905728,8.220808663103988,-1.777227283616333,-2.0884999796012824,-1.6217868499807193,-4.592405316334022,-10.860870476566484,5.88207369143632,3.6087559230356208,19.871905655799438,11.198085003735153,-0.3783748802867406,-0.9890700981121281,3.1681480365644483,0.2581307567006884,52.514888954228375,73.69191216177111,68.20550319278107,0.0,-0.08498649039760287,-0.16691944953695517,-0.17446678102129062
202.16000000023718,mud,5.139641701143031,16.4049920823853,8.720641264700799,-1.7885452240845248,-2.3811421232935928,-1.263944436343205,-5.028933282068239,-10.711824806810588,6.557484541873063,3.5314444625716512,19.855173930478248,11.950061501521278,0.0657987311166672,-0.7307209106780443,2.783131194794562,0.2537908369423394,51.21968771531182,68.427345447672,69.12012143200364,0.0,-0.0884188663621193,-0.1710106759582917,-0.16032454169318863
202.18000000023727,mud,4.950733104597294,15.837955523065471,8.559999832730785,-1.7809707909713302,-2.619182392419427,-0.9114124959642154,-5.044437230615806,-9.840259035586394,6.625022921451944,3.4883096539808416,19.348785431639975,12.703262326979122,0.3868743206567605,-0.17588791992751848,1.945168622319107,0.25050634446682185,46.810554905726974,58.68364547552835,71.26150967877851,0.0,-0.09077624131862425,-0.17757938007677132,-0.14662242135192466
202.20000000023737,mud,4.175476431416582,14.56909127698404,7.838299510256189,-1.699467846181223,-2.780845170151422,-0.4382621534675587,-4.785298525006545,-8.987922417187793,6.824776193035431,3.43439014420138,18.75431280154544,13.570995374364813,0.38802138507435513,0.40208797463847656,1.2479118288131,0.24795974481958297,39.77058529525637,52.64059529482469,74.68259263490255,0.0,-0.09310586935680837,-0.18690174843639412,-0.13406676345462573
202.22000000023746,mud,3.5708723792626493,13.43120155544757,7.322025198907104,-1.5851572183344897,-2.876152831499466,0.11597104503184985,-4.578760784288242,-8.484269274408135,7.487035997504652,3.4240551318715884,18.442173656939367,14.439053227178121,0.21432485065297777,0.7298209250801918,1.0666912335481327,0.24590493807845037,35.222422717907,51.56235979681924,77.54003594963602,0.0,-0.09604747443646483,-0.19745565857864258,-0.12244650763773464
202.24000000023756,mud,3.466433195938472,12.937884799006131,7.386285682812178,-1.540618668583503,-2.9630776427543326,0.4392886677621941,-4.5402787150983475,-8.177202620176104,8.38886700232183,3.404499201394666,18.330289436125213,15.144724000430667,0.1059785286983879,0.8014430847501641,1.1787349925008581,0.2442787298438922,34.62025567709452,52.43810867552923,78.89427027007014,0.0,-0.09980610105545004,-0.20775862657242164,-0.11119058616102075
202.26000000023765,mud,3.6250320770853435,12.859397840382368,7.762008588587234,-1.5604112155100591,-3.0414552809785516,0.718200458837043,-4.5631942509459495,-7.8339578891062,9.394991517696987,3.3244132444408163,18.161069429999348,15.683947167887016,0.12486908615880048,0.8312804027869488,1.2349474770725937,0.24311784359573838,35.68026570097087,52.06971052628507,79.27420605030359,0.0,-0.104538463664437,-0.21750241361794215,-0.10004740051842338
202.28000000023775,mud,3.794626816453073,12.826220432037761,8.107429917880655,-1.5746943123487915,-3.0914528714386567,0.9764120931025659,-4.557255946976217,-7.445983389282528,10.148117060488108,3.198004331826236,17.840252721709334,16.084869735561078,0.11637558959423784,0.8476877836010505,1.2321293679416718,0.2424466433843972,36.420759109181645,51.78923196518798,78.92340107789146,0.0,-0.11050695997006547,-0.22717314407894587,-0.08916712088119128
202.30000000023784,mud,3.8622546012465446,12.634595845987471,8.310021734242067,-1.5705507359684927,-3.1139592823193007,1.217865121064985,-4.501753866261657,-6.98589162486353,10.712667367601945,3.0498442695773424,17.398009678212315,16.364011819111465,0.36409997360309754,0.7655632755432857,1.5236899362606147,0.24225437224799554,35.99283005544372,10.297488215525291,48.90579698416818,77.15318514946976,-0.11781747905694544,-0.23716970957404251,-0.07872549811312887
202.32000000023794,mud,4.11805103650857,12.690401649067155,8.732217150730314,-1.3748698733406277,-3.0386631103400736,1.516814727123318,-4.620442097971684,-9.507626053193853,10.155341468473413,3.2403636900904953,17.77392810573014,15.837602761410569,0.25601588566681355,0.1789028646841267,1.8748981268952378,0.24263371978534626,37.46386375323469,13.576647220215575,1.96359923920805,8.096944717653303,-0.12510963037127543,-0.24586483673671913,-0.06902944018002642
202.34000000023804,mud,4.575849628182158,12.807278727473895,9.223258431541927,-1.298714945805101,-3.0541386266713815,1.7253220130057674,-4.90535020135499,-10.31771899837672,10.630409673521028,3.3298133083196184,18.050250603781404,15.232175317031889,0.4916518955421117,-0.4169678595161749,1.9680438013922308,0.24374994108740547,39.15400461898571,19.282212957972053,0.0,9.659076245290837,-0.13085562597166647,-0.25114926577366936,-0.05878873762013473
202.36000000023813,mud,5.028553303780145,12.710015809278493,9.556347413777713,-1.2817229422437375,-3.0436841339412055,1.8945413641540547,-5.176424364601842,-10.299468625048721,10.853443071675033,3.359589530523068,17.90962319955274,14.774362350670744,0.6814732489812716,-0.5908326645834319,1.739343975977737,0.24563324824727237,40.13379249515619,19.403122886227777,0.0,10.328096282605388,-0.13439765366538642,-0.2532127376295458,-0.0469071727458118
202.38000000023823,mud,5.3338721259880195,12.394173606706348,9.615813435355077,-1.2825105840650506,-2.9986409535281187,2.040885485116557,-5.332167750959421,-10.117239323141906,10.508865199430286,3.355122718876978,17.42178445908487,14.433387066097051,0.8321571567656618,-0.5255973318090632,1.2146201649998392,0.24818075451894125,40.06861722991193,19.120101722830185,0.0,10.618236400372632,-0.1357995683163232,-0.2529371170486775,-0.033336007795222854
202.40000000023832,mud,5.501966940988545,11.938187272616073,9.545754942497476,-1.2761839753646427,-2.9175460569703926,2.1711916444835317,-5.385479607287868,-9.945174450098191,9.932774352516953,3.3320168752627435,16.773912970428277,14.163207754067521,0.8998630024976662,-0.38438618090054355,0.6528003371877876,0.2511855738215805,39.42883472156244,18.855243667939995,0.0,10.703158217138254,-0.1355383971706068,-0.2510897217670847,-0.018527776493544024
202.42000000023842,mud,5.615834435703784,11.493983351509964,9.466020127869374,-1.273563559307567,-2.8097965454357903,2.281093531644858,-5.40642023036906,-9.717222311985028,9.589821807334882,3.260359594953365,16.103694752457493,13.939904429154417,0.8798372665058241,-0.294776267262891,0.25089468322741254,0.254434390881086,38.92173114056211,17.908233165752527,0.0,10.725835326299734,-0.13420317649436223,-0.24804957540455708,-0.002962747336247986
202.4400000002385,mud,5.760376868217721,11.123129434304271,9.426829074207777,-1.2777337470221526,-2.6996999924259137,2.362692321251312,-5.4571662706162805,-9.257039506157803,9.615122679651858,3.105030507798351,15.391597124965537,13.799575369984325,0.8013181326100459,-0.23769882986427826,-0.10400409036533471,0.2577677631818306,38.825452573656946,24.1524048041342,32.1245442055521,52.10866971138826,-0.13235586633662882,-0.2440099443824075,0.013088371592470078
202.4600000002386,mud,5.944779586298328,10.805149454709664,9.40417805676592,-1.2871075182788654,-2.562260402154771,2.4258953226887128,-5.446128404053802,-8.672361326155116,9.84106752742522,2.9052185999641287,14.665771376106735,13.685114421660282,0.6930151491036944,-0.17406345648497115,-0.23992914010007096,0.2610600453742111,39.00259237221534,21.298276195578975,33.451348572336386,51.44637164633802,-0.13041309069884663,-0.23936273673733352,0.029442057718019363
202.4800000002387,mud,6.151895451834821,10.533912989059486,9.392767786772776,-1.2935805559531746,-2.416198986451924,2.469365514733189,-5.415267043517048,-8.15025564971084,10.075002421584545,2.6779801057976327,13.983190432761505,13.515317455706393,0.5867379920843101,-0.14985127511140972,-0.36611083423547247,0.2642510626246882,39.35820350439819,18.305771831104078,35.0969322518463,50.63649824052371,-0.1285822762230701,-0.23425508270762782,0.04579773964685879
202.5000000002388,mud,6.047629953399014,9.9866744192096,9.063152018565507,-1.3859531338914963,-2.3543442267596957,2.4275953968787842,-5.098588092684135,-5.245235074739194,11.35329837325439,2.0646708792844946,12.61504256645432,13.786265150107091,0.3744190242823926,0.38406325844082745,-1.0699087302601311,0.2671826484648461,37.46498356348471,42.07971324719102,54.13090592561165,0.0,-0.1281295934124033,-0.2300897153097155,0.06203338775848154
202.5200000002389,mud,5.914138505861858,9.46415956378344,8.720996342659989,-1.395187546760611,-2.1300981553772482,2.4610057961511718,-4.91997738266468,-4.686115612588136,11.03127782391331,1.5875052827487326,11.556977169403353,13.819726685029078,0.20103167185550275,0.6712388333855256,-1.2187720194671119,0.26966283534387664,36.057514317027795,39.763340144102294,55.560898528995445,0.0,-0.13020974059969348,-0.2281793803315883,0.0771562699437486
202.540000000239,mud,6.014732413665054,9.176456963328892,8.572480073548821,-1.3550839892641344,-1.9102614547831998,2.4798963993861296,-4.8230650619016675,-4.366811855675361,11.687904077419597,1.3191134029042548,10.930295898118228,13.607549608374903,-0.10414089068417602,0.5097685735334233,-0.8820635439755381,0.2716784511266083,36.304568806466904,45.134653331334164,54.93629404868422,0.0,-0.1342410279594679,-0.22727672035491792,0.09052371867891855
202.56000000023909,mud,6.414266852292866,9.102233099513334,8.64654317209428,-1.2821118673690663,-1.7121281727923732,2.4708986468759893,-4.868578285592075,-4.097842249300326,12.861093348735189,1.1760972319778011,10.628108923928313,13.146915292607357,-0.34586424245596203,0.08966750193231747,-0.36512222634402375,0.27336760537064503,38.31351610053395,53.062195114922986,52.213842279957234,0.0,-0.1390443431455724,-0.22607127871676777,0.10266998321546815
202.58000000023918,mud,6.959907632224102,9.085052016677539,8.774792034593625,-1.2549898871464282,-1.5416348019812776,2.429782030616047,-4.929003013115688,-3.793941880532085,13.822378648112533,1.0455909720025807,10.396456340727257,12.53800627175904,-0.4469317849250221,-0.30669823230025467,-0.03905540369975161,0.27492188511207316,40.67851659634884,58.87151012460615,48.518798812982,0.0,-0.14352597614832172,-0.22387539547162313,0.11447874811978172
202.60000000023928,mud,7.509848375859286,9.067106532250662,8.712944321500798,-1.265577835227852,-1.3801554356598764,2.3655585386590614,-4.946077738193138,-3.4739563210154394,14.393046100374775,0.88506568179024,10.064272918464345,11.880330247988478,-0.46919870723468643,-0.5938575213620979,0.07893798318558273,0.27646362076865993,42.78511051084475,62.05670371164584,44.880962532997366,0.0,-0.1470207271719153,-0.2207211725862576,0.12655760222178683
202.62000000023937,mud,7.95892825535695,8.971237803394462,8.492830297887208,-1.2711199720078064,-1.2029717812233462,2.295409274913583,-4.950372167592244,-3.1426247195000787,14.731275753721063,0.6750573415627756,9.629472664401764,11.210424758350435,-0.4781909434969354,-0.7913165533641102,0.007173320618562234,0.2780303364328828,43.256830331692356,63.98604812441546,41.548853702060484,0.0,-0.14927538005040095,-0.2168933445053681,0.13914897695643552
202.64000000023947,mud,8.283886578137352,8.747972205682347,8.285264817720844,-1.260280577645461,-1.0091430013439697,2.2209225183243495,-4.942461170092117,-2.7670180950906254,14.996453933537389,0.4398424397219054,9.161681678533064,10.55455725554973,-0.5007229737132387,-0.9632867181972442,-0.08118198546893965,0.2795966054621307,43.24046861151955,65.72046846010404,38.57280051187446,0.0,-0.150178231414115,-0.21242812771162398,0.15234991455922778
202.66000000023956,mud,8.495987980460914,8.466540411328536,8.027918122805648,-1.243626580686661,-0.8090127693460156,2.138871386948421,-4.901574375785164,-2.2580266582586077,15.249757160257637,0.22309815210363015,8.68115568619399,9.945739879731164,-0.49020642268775827,-1.0983436337537966,-0.16018574030550647,0.281127675843453,42.842281451403196,67.44717608714541,36.118837813650885,0.0,-0.14957888676926157,-0.20721519565842209,0.1661788243430578
202.68000000023966,mud,8.600011357920692,8.107008704548099,7.713162270909033,-1.2360341312487833,-0.6102250898409125,2.0468157496400607,-4.786351796774511,-1.5480556732314437,15.454509249198079,0.0776792237102879,8.189574560973405,9.401126986776383,-0.4149780889605663,-1.1859758261590017,-0.25658830651066167,0.28259133116922164,42.05397400819513,68.74008919406285,34.26981123981251,0.0,-0.14721159296015582,-0.20115445372349092,0.18051460139097203
202.70000000023975,mud,8.582254194517564,7.661622722707622,7.3396000832422095,-1.242799436081011,-0.41545889193650276,1.9455108147251359,-4.630432044090777,-0.67500648162292,15.57631859219125,-0.015524625833550854,7.682802790174752,8.926144156182302,-0.29061715173217645,-1.2219527720422223,-0.3855118895184957,0.2839476575908205,40.86131477321894,69.36570661217891,33.03211229239685,0.0,-0.14293847578731658,-0.1942565294533121,0.19506724306327236
202.72000000023985,mud,8.47697468692786,7.148194826206051,6.9322053788076055,-1.2555039925539295,-0.22249417346823896,1.8380003255116373,-4.4548815768272165,0.28337326373182314,15.625620398425216,-0.06626043259751002,7.167536650623927,8.528711464391591,-0.1500551056495029,-1.219282666668212,-0.5198554921294124,0.28514555151950544,39.47104428237088,69.46801994141317,32.435768943927755,0.0,-0.1367627505886479,-0.1866040001652279,0.20942959316290505
202.74000000023995,mud,8.329484804532967,6.606272478461937,6.534484594335746,-1.2583360492481384,0.12053457221572504,1.7125792895669854,-4.2848393415548545,1.2747423950004548,15.632544429754066,-0.08118439509145803,6.666970198493964,8.210278521009224,-0.030044661129358486,-1.1785803917269333,-0.5997887821367768,0.28613332401907393,38.15652459386663,69.25712258783447,32.862889794149666,0.0,-0.12880286282703027,-0.1782674509191153,0.22313127842196906
202.76000000024004,mud,8.164539813986638,6.069002272518148,6.167168866676593,-1.259701608562292,0.4646293289203378,1.6120824042980733,-4.1516748191435076,2.259903304378864,15.620492270513116,-0.07712852642801837,6.246973953806686,7.8726580806593995,0.13537663502104572,-1.1078124633836255,-0.621563485345522,0.28688553014944596,36.9747245372947,68.9967315258585,34.06989473070032,0.0,-0.11934850108688769,-0.16923496282179584,0.23564952050277757
202.78000000024014,mud,8.031464314411132,5.525748213418763,5.839962046590005,-1.2611434157467327,0.6624144325864872,1.4980336607727818,-4.056675974835668,3.202600367985175,15.633413116844991,-0.02906255532494051,5.762552309304449,7.672639067552664,0.23545894656031804,-1.098781274617365,-0.6336778253428932,0.2873919652575887,36.12249750656238,68.97891161913118,34.85325649404701,0.0,-0.10864587801345392,-0.15956284943196236,0.24657510015409023
202.80000000024023,mud,7.926286945400627,4.995748507473417,5.563520351109855,-1.262512483890431,0.8542572961540669,1.3844336829127188,-4.0222682434447,4.129873373696375,15.646416219205728,0.04345896158673085,5.280909642540613,7.5363300484603375,0.3267616760467635,-1.0938068956434468,-0.6021276441528208,0.2876489460613914,35.568019789713354,68.9966050541572,35.905264276248644,0.0,-0.09692177229458791,-0.14924532560031106,0.2555783550674549
202.82000000024033,mud,7.852304267547132,4.456195636564915,5.330638384841664,-1.2632230812393097,1.036954175277036,1.2722366959967029,-4.046778047517824,5.0366693644415,15.647757721571391,0.13972468094049395,4.8053570917517785,7.421631439662952,0.4114071138714295,-1.1081578841820534,-0.550342923662974,0.2876694543301841,35.34497444327,69.01356375656415,36.92131615034769,0.0,-0.08435993984382928,-0.13825623482843474,0.2623977136715241
202.84000000024042,mud,7.758479116213007,3.7981583423444616,5.044764555760595,-1.148552750556351,2.0817506343362195,2.1382165795386965,-4.164103376054383,5.80185542685769,15.6843683175973,0.21754431583738623,4.1747980069470385,7.3498915109792495,0.2969145970837746,-0.911790957337108,-0.049369770932109626,0.2874894653495116,33.54553683860817,8.095771409585051,69.83831260991822,38.89085742106013,-0.07111127599380382,-0.12680715962673816,0.2669074205105756
202.86000000024052,mud,7.320342165891674,2.9500535956118923,4.110637141836537,-1.1084513335854962,2.99822317281495,4.585797876885211,-4.417240384036721,6.230767723865966,15.622926532600783,0.0813121844821792,3.0606537199439767,7.15615470795579,-1.053081308061235,-0.23020706950338518,1.5250789553550388,0.2873969030066234,27.53538359611232,35.80879066345744,70.06584861487666,41.29659661592753,-0.05787794673857341,-0.11680742341178053,0.2695440819830588
202.8800000002406,mud,6.380820648078148,1.9088494052471479,2.997721714188365,-1.0232350490823197,3.7492266424500436,6.0543056765556305,-4.466938313040019,6.800000329204986,15.11487836253396,0.01511538590493422,1.8861735488119464,6.693286691493427,-1.614778548621551,0.15802604979991067,1.451776477783311,0.2878731604091158,19.69395524145475,44.93271402610836,66.47876918011312,41.91481221951798,-0.04515300311874016,-0.11030788702858857,0.2711344605796725
202.9000000002407,mud,5.1133426610939825,0.923652287363622,1.9632159125632191,-0.8420601669467217,4.770508070021608,6.370399562339534,-4.300012620859378,7.5809507594832395,14.536082785070462,0.13749519522859696,0.71550727374618,6.305100619591948,-1.4048351101420378,0.39664804397990594,0.6811614710219627,0.288887080829444,12.067290083721714,43.63265558257983,62.274864634890505,43.23011071994298,-0.032531795766437374,-0.10702859200425735,0.27218749024645594
202.9200000002408,mud,3.7334537588750467,0.09995274629106421,1.0113890298566972,-0.6000024771759401,5.853350152833523,6.493600451926861,-4.045302312733273,8.52983780948926,14.070401412039981,0.3422978794596483,-0.4529541491418212,6.0587907163481205,-1.101421258390098,0.6326914068043714,0.006296694836985374,0.29014916326552487,4.967338322720067,41.09764265266366,58.75773979513201,45.51750453758661,-0.019959125626163792,-0.10591908306518477,0.2729486888962954
202.9400000002409,mud,2.822956005786854,-0.42024047388581387,0.47354919730134193,-0.4024073544400376,6.969154644105003,6.586140720038098,-3.7893754142650593,9.525547614689915,13.788806958528125,0.5833448421951531,-1.6220495528208403,5.9227585204989195,-0.7796409534339966,0.765721928494686,-0.28868760969437746,0.29141010833870906,1.6230840343543174,38.193126505581674,56.75391138596937,48.39523142459611,-0.007701071442362495,-0.10603476373931767,0.2734878919838576
202.960000000241,mud,2.3838982881559403,-0.720688419538527,0.24733411026520713,-0.3949212525876973,8.107948867124797,6.6246400310976306,-3.6577526477830338,10.471176657059333,13.682391493964683,0.7540815362341844,-2.7986923215123527,5.834129321538297,-0.460863897412873,0.8113742163357605,-0.4207613882801781,0.29255508437195155,34.97918791674606,56.23174047912032,51.368552099468396,0.0,0.003626578959107768,-0.10691860802057042,0.27362116852422236
202.9800000002411,mud,2.16322598139277,-0.9665554634686822,0.18712029702701527,-0.48108292394368535,9.240478941035754,6.710991792482783,-3.5760466511614437,11.391704234126557,13.679755331836832,0.9141420399929764,-3.9706624522176015,5.772934146829643,-0.20905126955649903,0.7813403034599102,-0.36766531266196023,0.293544322400434,32.25983551877726,56.554484094350464,54.17603205783896,0.0,0.013738275249190877,-0.10816651793812337,0.2732067693578864
203.0000000002412,mud,2.044250917543107,-1.2238338834647018,0.1533242267249777,-0.6233664353296118,10.390241140605866,6.749160495462774,-3.5197887221664006,12.303907629824307,13.718416282846668,1.0791093115853778,-5.128295255637435,5.724774445738757,0.09470951780674068,0.7042444355695878,-0.41583782124584306,0.2943821195051379,28.70576356767027,57.2528655465705,56.27826434574351,0.0,0.02259522270055354,-0.10943011399815725,0.27217830907441093
203.02000000024128,mud,1.674419214440877,0.3584040622351934,-4.179992754181937,-0.7623902493985039,10.119174723029534,-0.5006881703362591,-2.8278650448673988,15.800802178844629,2.046912448019375,1.421216585452946,-2.674087197255801,-3.404324900833789,0.6127651180463453,0.39548978304346494,-5.229533798761457,0.29322346750566486,15.568500042894444,29.32799740908704,24.212642058203546,0.0,0.03337220349548937,-0.11705662151867026,0.2695126446340332
203.04000000024138,mud,1.4477674241237453,-0.36342871869035426,-3.6437115950796404,-0.820703396764004,9.290392446381363,-0.5058424345084394,-2.923321967750178,15.611787136347779,2.613538709209326,2.0006634470045017,-3.386381397716291,-2.7428996813698827,0.6374021604294245,0.25058603456142936,-5.353620029092665,0.28986340144678796,12.790944866679027,29.658209907840565,22.883574054435893,0.0,0.04447054562462706,-0.12882296102580693,0.26410637450934843
203.06000000024147,mud,1.3429606644441305,-0.8285182487140199,-3.1600689298085003,-0.8862822926897355,8.974787701288335,-0.06525157340417032,-2.984097932971669,15.638926512593192,4.333927390946309,2.364846712021242,-4.435479892666792,-1.5466892038499473,0.08820832527929735,-0.1730442232581757,-4.002565028508217,0.2844265833969345,13.712001966516441,42.40499047657486,31.11821587669931,0.0,0.055372659143912754,-0.14243637891192462,0.2561687527410418
203.08000000024157,mud,1.3314644312913078,-1.0773246598130086,-2.680133650065856,-1.379317228944795,10.280711137380361,1.5994115065838965,-3.27480153509293,16.64841081838214,7.129490707699201,2.933990587494097,-6.52041876429425,0.4668638520051136,-0.5681782108471762,-0.2863555072880106,-1.226432968674812,0.27752186550539093,21.800733499733536,58.53711458510039,48.58046478457744,0.0,0.06579350169201927,-0.15392521491850591,0.2463370943101506
203.10000000024166,mud,1.4949906142224423,-1.4081549990475444,-2.306104078363016,-2.483347209800658,12.587666059482258,4.402261741253996,-3.5141130913812186,18.276981064058255,9.062109988606942,3.562970062377123,-8.523052439551316,2.897317789437478,-0.7781689377400468,0.3745159677905331,1.3954243301322466,0.2702254261419841,37.84936780686314,64.85046217705586,65.07755598258362,0.0,0.07491976833821584,-0.16058760001706407,0.23494347474276467
203.12000000024176,mud,1.6805877104429316,-1.7716696042983369,-1.9729849560036703,-3.7362530258377875,14.457546916376776,6.964691972213764,-3.6895865446022924,19.413942208571534,10.277086353107654,4.091736126489599,-9.913530681624234,4.691598945138011,-0.7061585133232688,0.8814793686831074,2.8548158681076767,0.263522326006362,50.62410082650195,67.06189434969329,72.06482040277736,0.0,0.0819798925880145,-0.16404572733104836,0.2221301207307009
203.14000000024186,mud,1.7823037944254652,-2.0891835647757135,-1.6199035183016557,-4.650680254192435,15.816185202741083,8.187591417313737,-3.6641493945104493,19.90161229271266,11.218808988685794,4.666278914591414,-10.81103990504083,5.899684579702061,-0.41631530686737545,0.9668219426379286,3.161917903800067,0.2579466468285457,52.38522281537312,68.40637573415208,73.52871917580192,0.0,0.0870629531148294,-0.167034852742244,0.2083598784432748
203.16000000024195,mud,1.793531448720699,-2.3815230806264367,-1.2623584420411667,-5.147876752108737,16.36654663119348,8.6910662459396,-3.586876347170578,19.88500487537181,11.972588650374185,5.097348757046667,-10.664074638127566,6.577512813843564,0.03491960815698194,0.7233888476376594,2.7822098535124535,0.2535961499548495,51.1070388389416,69.33137329562757,68.31538321123458,0.0,0.09063343431450989,-0.1710897458067684,0.19416711230822334
203.18000000024205,mud,1.7861935096240944,-2.6192407586389486,-0.9101119218982103,-4.95869321794965,15.807474002529707,8.535435383091128,-3.5409479292800627,19.38164465674142,12.724082269969514,5.10682060661027,-9.80298430798647,6.651880327983694,0.3724820806618539,0.18386231665947145,1.95133857968039,0.2503010601631721,46.724081649960844,71.44372460193108,58.68164221717986,0.0,0.09318585063481473,-0.17764277645402207,0.18042084809024397
203.20000000024214,mud,1.7032516666683333,-2.7813397462457674,-0.4351867019266833,-4.185474300392453,14.547660415043318,7.819071850638509,-3.4830207143115985,18.79016731177486,13.586597839423352,4.84477465120495,-8.95919828363775,6.857048355672748,0.3931360550630502,-0.3903484783229667,1.256664448880834,0.24774636181401172,39.712260121433275,74.80620645263035,52.70261695056434,0.0,0.0957743696597988,-0.18694458535073574,0.16781428339491036
203.22000000024224,mud,1.5880599001927878,-2.876977532791864,0.11706058011163134,-3.5819433166347077,13.411831721571943,7.303254593413632,-3.4708951797321506,18.47802087264749,14.449617005569776,4.636423134577182,-8.456901627571161,7.520095595649256,0.23112293310642973,-0.7227472752902181,1.0727105265126902,0.24568673932413856,35.16321464387485,77.62340115518118,51.62433284050541,0.0,0.09899549086522606,-0.1974668946479761,0.15612782441987869
203.24000000024233,mud,1.5429386470754625,-2.964039318434616,0.4402541053076716,-3.4770684209206055,12.915857187282294,7.364824091152071,-3.450045381997529,18.364093910492144,15.152241095669277,4.596567518828789,-8.14757325694736,8.420285584014918,0.12518430215298756,-0.7991669317492054,1.1812920016258142,0.244057952566427,34.54651206406534,78.96313811986566,52.4783746027031,0.0,0.10302413436817069,-0.20772754703664995,0.14478827144999615
203.26000000024243,mud,1.562348750443713,-3.0423811208165183,0.7190623550758255,-3.6358627564447796,12.835425939333316,7.738669122246433,-3.368123296958068,18.192800590478637,15.689369328795276,4.618169774827695,-7.802893227838663,9.423420483698054,0.14495877096677723,-0.8299837383753109,1.2352975746984696,0.24289555121709283,35.5997674258659,79.3348483063641,52.093671784556825,0.0,0.10801442497090516,-0.21741480367633198,0.13354426360453658
203.28000000024252,mud,1.57624560915739,-3.0922957141420495,0.9771948362242404,-3.806626091254758,12.802286296408623,8.083646861055954,-3.2390249812295475,17.870208840864287,16.08834218627796,4.61034784860289,-7.414589161235288,10.17970995224919,0.13571946016608177,-0.846864202612621,1.2333993039962659,0.24222325660700417,36.34287012842837,78.97382793129024,51.83326999118425,0.0,0.11424159072620457,-0.22700987053909366,0.12254753117855127
203.30000000024262,mud,1.5417859117373314,-3.0959296718105644,1.236402958414021,-3.8892238495162426,12.627884417801848,8.288200629213366,-3.1309419986698535,17.485265378358484,16.318388293341982,4.558270473606962,-7.367535077847872,10.569347524053683,0.34209989381218453,-0.6993252130575507,1.5909074689048193,0.24203416170871667,36.12143014706701,76.74575868258441,12.158339212298957,47.98131782192389,0.1217770728254976,-0.23687376339638466,0.11199773977231564
203.32000000024271,mud,1.372167233625368,-3.041037536758993,1.5188280017812672,-4.172962901205358,12.737373877389752,8.72804759082658,-3.306915413569141,17.894440801017687,15.757181359260674,4.703504130721261,-9.664186839466641,10.146736546850011,0.28575530076767314,-0.10885863813944371,1.927706951626313,0.24244573815112455,37.749595200812614,70.78914758851683,1.1809646767214104,15.04885543274795,0.12905266449209601,-0.24516055753916313,0.10217376896772272
203.3400000002428,mud,1.3013341194902561,-3.0593897257645173,1.7249202981605443,-4.634524130220159,12.836655467270674,9.219666664557417,-3.3894165192755024,18.130997191301034,15.17196641729186,4.994374065317976,-10.372393617489365,10.629871581699192,0.5060646182925393,0.46839985917516497,1.9833387408926573,0.2436135322261222,39.35344724522188,64.12370567826989,0.0,19.654259280946533,0.13463676050073364,-0.25003727552312893,0.09171170980223614
203.3600000002429,mud,1.285297538398452,-3.0473392237615133,1.894179961744892,-5.068136464191111,12.70330732550894,9.55020210089905,-3.4154088678822796,17.952455187259645,14.73397022458508,5.2559856958101365,-10.325609338651006,10.789749801858402,0.688225562197848,0.6163855822927022,1.7121427564596585,0.2455521923381036,40.15814627279468,60.21176279377699,0.0,19.662089975910977,0.13794158125177056,-0.2518031385650335,0.07960452008792065
203.380000000243,mud,1.2844412138329657,-3.00023396411716,2.041340767178613,-5.34784152698864,12.36334353493065,9.59002805940222,-3.4092120453982666,17.443519876152536,14.408379426040305,5.399685590523113,-10.144531061592811,10.399332156441815,0.8359274215366889,0.5391049652939824,1.168817164608742,0.24814359878408263,39.957699072563635,57.18580173168314,0.0,19.388337512850335,0.13910133497262012,-0.2513341446786184,0.06586001531627816
203.4000000002431,mud,1.2761138595948676,-2.917690274691184,2.172272049719015,-5.500080988271155,11.897280943483718,9.512927875793903,-3.385551657776273,16.79105845270141,14.151119659537105,5.443286950128271,-9.97131047530631,9.827981768477692,0.8992249858506886,0.3982220005945512,0.6137143560113417,0.25117474504615617,39.27763552572417,54.85333443629104,0.0,19.069290270119204,0.1386246221296552,-0.2493499797086847,0.05093827796503598
203.4200000002432,mud,1.273952053323867,-2.8095696004036146,2.281929803818822,-5.6120599938841265,11.459263871341001,9.440879212586584,-3.3098699550390647,16.12249433046699,13.93986150346634,5.460761531346569,-9.73494094980992,9.514071014940109,0.8757737805733932,0.3120164474443397,0.22855818438484715,0.2544352369703818,38.8210973190027,53.15175276143516,0.0,18.030691820851295,0.13710857026349843,-0.24619036497310665,0.035300292288777214
203.4400000002433,mud,1.280201154524821,-2.699945667010449,2.362615740348648,-5.761962297711898,11.096432219010289,9.410714001109335,-3.146363166058591,15.399117441205513,13.819333928405447,5.51090118148926,-9.244394961338998,9.571636738313742,0.7925691750582313,0.24772817126712846,-0.11268873920149111,0.25776922771835986,38.78059443662178,52.311738507575186,24.05403877191082,31.924564746439874,0.1351223901148947,-0.24206081196300844,0.01919385166855014
203.46000000024338,mud,1.2900433724133076,-2.562011468051753,2.4258562152577188,-5.950310136372853,10.78930826156858,9.398413905304013,-2.9420337156379324,14.677377400591837,13.70594245468793,5.4952824873883825,-8.673564974197934,9.796166241072918,0.6878060794656098,0.18586372262868406,-0.24247201052417958,0.261056490856293,39.009883345220466,51.637630047064256,21.2632071458416,33.25007996561095,0.13308031040309717,-0.23735149313224574,0.0028221062427825063
203.48000000024348,mud,1.29704843870685,-2.4175665801968753,2.4684547923778632,-6.159632397981538,10.524318784179641,9.392820733135641,-2.708578557698666,13.991993296200022,13.538829300957648,5.462896975084094,-8.144235266957084,10.040128063584502,0.5692988689800843,0.15432515839626038,-0.39917739052050677,0.2642412870040123,39.385529232712514,50.86457586732433,17.593108499490686,35.086476204155176,0.13117960785915644,-0.23219500488129294,-0.01352188507110454
203.50000000024357,mud,1.393343802902693,-2.3478816785402525,2.429091897944434,-6.008653239389099,9.942034821722377,9.024532149450339,-2.052569429194283,12.554278118804424,13.854885441902264,5.127405249219602,-5.191058154338828,11.2776842221989,0.37945807167748646,-0.4254506946172329,-1.0907324219149903,0.26713959207249255,37.23686696523849,54.66566524790289,41.414103926704655,0.0,0.13097642683860147,-0.22827541083090971,-0.029701389420064908
203.52000000024367,mud,1.399217447892702,-2.125358323186356,2.4631556664649823,-5.881942628273791,9.43452670483367,8.694155237798858,-1.5933143333290714,11.531734989143818,13.871681799825591,4.932204404193987,-4.665314883014863,10.993100944063595,0.20229722178984946,-0.6894300121372429,-1.209845417989456,0.26958086900952016,35.913998494551706,55.931164602547035,39.69692505175492,0.0,0.13335641969277828,-0.2265184067481071,-0.04462513319315076
203.54000000024377,mud,1.3487502143593522,-1.9065970133951904,2.4820211547439808,-6.008928050620046,9.171668197461926,8.570302668863503,-1.3403592068548122,10.941637759872151,13.637947765674774,4.8496234166722925,-4.357686245826329,11.749320751827543,-0.11597219457314148,-0.4991473998374103,-0.8328131054706481,0.27156304793710084,36.34894716770406,55.088067780383625,45.65658022436741,0.0,0.1376435972184844,-0.22563654595382168,-0.057777105756435895
203.56000000024386,mud,1.2784631125753576,-1.7122492123978192,2.4713433534419753,-6.428878300765419,9.10911562401906,8.660424686555983,-1.2045262479977998,10.656071079798602,13.159411729579348,4.904425966981896,-4.084818617599453,12.933932273580856,-0.3596155908806003,-0.07754087645023437,-0.32095029998107727,0.2732374624437312,38.474757906597596,52.21468254195237,53.53054763881684,0.0,0.1425924152370301,-0.2243542416391258,-0.06977835938478469
203.58000000024396,mud,1.255864970052742,-1.5442076021977984,2.4289275031618995,-6.977057608615855,9.089242811805937,8.78469044285342,-1.0722492359358498,10.418368365959093,12.543058478715412,4.968253257966057,-3.7740559257996606,13.859409734330143,-0.46158758767134944,0.3047523214126581,-0.02265525333093273,0.2747930135146856,40.79392148299402,48.487847982060124,59.02901556232179,0.0,0.14713294887091624,-0.22207763533116676,-0.08151061129515756
203.60000000024405,mud,1.2670080310001428,-1.3826491596406147,2.3648285977697006,-7.519589531564388,9.063135429032222,8.707610573073481,-0.9086785185890633,10.073133632462108,11.884221193955895,4.986091374214637,-3.4497046390521886,14.398576533173769,-0.4893787311758473,0.5782626153653566,0.07268433985792924,0.2763419641791013,42.77209868017245,44.87734026212698,61.994157326423576,0.0,0.15064941657418943,-0.2188947605632135,-0.09354644785858392
203.62000000024415,mud,1.2712340396165196,-1.2043716692862882,2.295271206945052,-7.9598724097596065,8.95981095284355,8.476434565810804,-0.6968178905936799,9.630776334243695,11.215230812313767,4.990078630393468,-3.1163764624480983,14.728183680197475,-0.5074378397526994,0.7703882186574249,-0.004042500215973769,0.2779136020562463,43.175923879593945,41.57732330878764,63.8799154575918,0.0,0.15291623744044808,-0.21508642817942303,-0.1061055334348006
203.64000000024424,mud,1.258896951833221,-1.0094779786349113,2.2213422674628056,-8.278733964560171,8.733499674929076,8.263169596820386,-0.46065157379684263,9.162029808238785,10.561470814307683,4.981404938572628,-2.7396063764694185,14.999320832396043,-0.5391382566233638,0.9414224743829491,-0.08925153022654787,0.27948059616638044,43.12787159794572,38.62445481598669,65.6593243643049,0.0,0.15382496216968408,-0.21066817854911407,-0.11928219786600908
203.66000000024434,mud,1.2407466215685163,-0.8089637951141864,2.1395411539146627,-8.492047513961017,8.452339775600754,8.005683237567624,-0.24687082843508268,8.684475458382584,9.955750071235713,4.934540611688839,-2.2289305122547125,15.259637185735816,-0.5345168284991051,1.0767961530590529,-0.1627052157911166,0.281009456003461,42.74177906439887,36.18837953636976,67.42544404743552,0.0,0.15321264721616212,-0.20551304732940104,-0.1331015873562343
203.68000000024443,mud,1.2347457754864475,-0.6104830091054838,2.0471528616651105,-8.597794248683721,8.09505832710382,7.693335459468467,-0.10078970336235815,8.196238772941532,9.413452261580277,4.816183966000097,-1.5160008830657974,15.46914436921386,-0.46120422983796894,1.1674892281404392,-0.25595379119873046,0.28246994432717326,41.97444817090384,34.3451285190577,68.74273049495147,0.0,0.15081086413322015,-0.19952347867602685,-0.1474451306672619
203.70000000024453,mud,1.2426685723358235,-0.416110942804775,1.9455415537793774,-8.58315502696281,7.652588352983828,7.322639215123229,-0.00584339761067465,7.691036597963775,8.939763660673936,4.6588014815480685,-0.6402062446834833,15.593498141848059,-0.33702439448351484,1.2074327167037782,-0.3827908945396734,0.2838234099773833,40.804793356063385,33.10763803481371,69.38030776424382,0.0,0.14649559783806093,-0.19272136287097394,-0.16202074623592916
203.72000000024462,mud,1.2558965829989366,-0.22341737828737218,1.8377942612279012,-8.481573211639152,7.141827423929253,6.91776410625636,0.046522282534935955,7.175890070000282,8.541956886209428,4.482689255090906,0.31961099456428466,15.644440409555333,-0.1961300043031098,1.2094652313719807,-0.5159807582529412,0.285019549249536,39.43473112224762,32.50308734117873,69.49252009377389,0.0,0.14027681444667464,-0.1851990935620025,-0.17641638816150637
203.74000000024472,mud,1.2587497475846097,0.1197821431583497,1.7122530924551134,-8.33721351971527,6.601907294935809,6.521551367890597,0.06265208621254015,6.6745293791988205,8.222009865139022,4.312571835179171,1.3112438329424898,15.652988072793791,-0.07540502399110485,1.1736019264345436,-0.5961144745573117,0.2860070990983688,38.13250648046179,32.90458495283085,69.29522150461297,0.0,0.132276440763649,-0.1770325411354127,-0.19015737119763174
203.76000000024482,mud,1.2601489584551342,0.46366569986411177,1.6117846303720293,-8.174148396861218,6.0660235609302,6.154700893092716,0.05946095435822463,6.253983055699511,7.88216947539144,4.179376104574098,2.2964514762950734,15.642654973678965,0.09130690260033555,1.1080146335070307,-0.6170715528351651,0.2867606669026939,36.95415550141825,34.104659786648085,69.04865254889582,0.0,0.12278300377504975,-0.16820935291414593,-0.20271852984026859
203.7800000002449,mud,1.2616039144278866,0.6613811675964614,1.497742271897709,-8.041851819556573,5.523508609622378,5.826902477899829,0.011688399665286675,5.769744855336759,7.6794143548967,4.083883897879801,3.2392838583605856,15.657649171093457,0.19070513069574188,1.1027612411340257,-0.6298555750208952,0.2872701880305231,36.09789633465073,34.86635352014475,69.0472174509715,0.0,0.1120421063735975,-0.1587822081859794,-0.213689285346956
203.800000000245,mud,1.262978837014874,0.8532566864407765,1.384180452383827,-7.936559556645517,4.994034620845416,5.54922177309313,-0.06086661560465323,5.288446530821341,7.541354028821095,4.048656241371815,4.167234514065753,15.673079006563144,0.28113591310829744,1.1007015676363416,-0.5987538743103228,0.28753176910947,35.533817279123,35.9043845074393,69.08127905277826,0.0,0.10027749595228895,-0.14874213544081333,-0.22274062445972848
203.8200000002451,mud,1.2637047464910471,1.035974480855034,1.272015379573261,-7.862011118778244,4.455490499420285,5.314553558859673,-0.1572356919732788,4.813618386528569,7.425784069587042,4.0721991092444,5.075419706004824,15.677177760164346,0.36463238353493244,1.1176773607288055,-0.5473400076454867,0.2875582128699608,35.300242301393205,36.91157625067115,69.115522415823,0.0,0.08767129204228802,-0.13805924152775853,-0.22961170777356046
203.8400000002452,mud,1.170378636723851,1.9192054258417368,2.0099183433210026,-7.77831522566696,3.7975383185305316,5.069491065702919,-0.2542376703549628,4.217354143359168,7.349932766563236,4.171836389955702,5.869437749405814,15.703175428116419,0.2866092808931404,0.942543287659683,-0.10636716269322831,0.2873796393837033,7.2572945438238134,33.7188388412658,38.722890889893264,69.8085133205412,0.07433983577456185,-0.1268756238855639,-0.2341669546179099
203.8600000002453,mud,1.1269168985547764,2.9462816200137665,4.414958068644403,-7.366598980263857,2.953803457078687,4.174354845461565,-0.13029286661982434,3.1157186119484535,7.181065272667281,4.425244977099313,6.304697482164638,15.666514690927423,-0.9909134513232473,0.22866204884526609,1.4741546236578933,0.287259574850976,34.51908789757992,27.952674314728416,41.28237256029407,70.23938563485649,0.06098919979832883,-0.11698467738356946,-0.23679928517001583
203.8800000002454,mud,1.053046866844302,3.6987959070821903,5.987413465135369,-6.453433103923438,1.9309754656337577,3.0363841897398216,-0.04853259161730911,1.93504292579857,6.725014400204534,4.496136758743733,6.858501317592899,15.175793191097544,-1.6036529542780655,-0.19930538045673538,1.4790056562771183,0.2876942630207511,44.66099292386815,20.082741639797277,41.94673871961741,66.79010040746343,0.04821033148817823,-0.11054834489318276,-0.23835357343842528
203.90000000024548,mud,0.8773427241770728,4.725689403703965,6.331522028450089,-5.198870355394142,0.9307594923532825,2.0142401342821183,-0.16222786958848046,0.7587503478258522,6.33400821759258,4.338787011492832,7.628336430761315,14.595723046759407,-1.3981948415536714,-0.43146831536424196,0.7270938907880895,0.28867877122625135,43.536738499286066,12.533518904697456,43.247272913911374,62.595133523175186,0.035607018995768965,-0.10737007897836634,-0.23936502593016631
203.92000000024558,mud,0.6366566089966579,5.813186391337482,6.4576770126591,-3.8139857549357474,0.1077505716378516,1.05318621905388,-0.36501822171141296,-0.41340840353502206,6.082762054567583,4.08625544228068,8.570204489331813,14.120009403660102,-1.0877000239732997,-0.6585886041376765,0.036331461590694794,0.2899287577524683,40.995104871997654,5.329723438203398,45.50421414843937,59.01203852056989,0.023084521353863862,-0.10641627629039876,-0.24008312196738169
203.94000000024567,mud,0.42834000690008334,6.929926098103787,6.556728212600353,-2.863644312939613,-0.4177959105006501,0.4904412421030575,-0.6131988933577387,-1.584793070456239,5.945339694857613,3.821719230101025,9.566405394601498,13.826617512610838,-0.7619015516047187,-0.7902654518688433,-0.27790287303373795,0.29118884572305215,38.14399164879529,1.744433169437201,48.37409565359515,56.916409514589894,0.010857643744037913,-0.10671114025611253,-0.24058797187433875
203.96000000024577,mud,0.4141989417372708,8.069858138606504,6.590719132638959,-2.4520989510354667,-0.770191194448069,0.3041116562672914,-0.787652526612166,-2.764925959492831,5.856211003376861,3.6849803011080464,10.511125491676102,13.712055592208639,-0.4433596291516909,-0.8168763105729343,-0.4231900126733981,0.2923377846555044,34.86769783877052,51.32943847874353,56.33749061735384,0.0,-0.0004606113815975888,-0.10777406072584614,-0.24070009920963345
203.98000000024587,mud,0.49464007317504444,9.20233470242646,6.682536267114278,-2.172354595890729,-0.9670301745240364,0.19102276521595585,-0.9512604442162077,-3.9368601776362255,5.796145384668498,3.5993777165246117,11.434302071862113,13.704666315155853,-0.18872188915545646,-0.7923773505694702,-0.3688152846067534,0.2933328200774366,32.19456649203984,54.1593114467034,56.63081535572976,0.0,-0.010568360291301962,-0.10919538350692125,-0.24027127431639567
204.00000000024596,mud,0.6365538648125368,10.34811573715924,6.7300554904626395,-2.0517365354149617,-1.2244366404773728,0.15671246102701675,-1.115486240447332,-5.096460780034692,5.748231080672085,3.5436167836062107,12.345094872204458,13.741833722626705,0.10578463642852469,-0.7072340511849383,-0.40933260597494636,0.2941765380718066,28.744927870527462,56.26341867856867,57.33079485712598,0.0,-0.019419840056888495,-0.1106279331910096,-0.2392329497913428
204.02000000024606,mud,0.7739350021197842,10.090705197881174,-0.5224216354473903,-1.680225794148054,0.35717931676598735,-4.176990493560686,-1.4504944003922007,-2.6540350963393067,-3.391065021533066,2.8461202779227044,15.851888818285872,2.071949185871153,0.6281456383263635,-0.3755817765459292,-5.227187040268697,0.29302581903222674,15.515638967175585,24.200992586422917,29.44054743065065,0.0,-0.030086059417746218,-0.11844917180313613,-0.2365571746430459
204.04000000024615,mud,0.8349122369771048,9.267193838951638,-0.5251843659783653,-1.4528958250537833,-0.36411726233240693,-3.64088593452521,-2.0290317968761262,-3.372557600049673,-2.7275620736766477,2.942757574546443,15.656824939288732,2.6343542280111,0.6460024464257933,-0.231117604296002,-5.348905215860788,0.28967476456925007,12.73193981777365,22.911152449422257,29.76580764370677,0.0,-0.04099819306382393,-0.13042560932968678,-0.23112746829988795
204.06000000024625,mud,0.894250720778387,8.944417375776425,-0.09059783240750718,-1.3477108752288305,-0.828629780572081,-3.1573656818282885,-2.3962867848926503,-4.417883742134362,-1.5298893330398773,3.003343787552832,15.68401390579337,4.358184967660222,0.08059187044182405,0.1770834402229884,-4.00031958197982,0.2842487853832494,13.611488038128014,31.125093156724777,42.54176037541575,0.0,-0.05168054641631123,-0.14424536969248017,-0.22315182129527433
204.08000000024634,mud,1.3780132046694338,10.231393471665667,1.557168964791952,-1.333639647303634,-1.0782238517352067,-2.677494583017676,-2.9705637783774934,-6.484764784062756,0.48270184484098166,3.296144900290938,16.697632119556538,7.156602049128441,-0.5775848954282131,0.2736781898679145,-1.238387825831334,0.2773550116264352,21.585529868734202,48.47111299257819,58.68092676064381,0.0,-0.06191785606207407,-0.1559308169035329,-0.2132680131612124
204.10000000024644,mud,2.4811287798704544,12.534704179779672,4.342265911811982,-1.4963024253302941,-1.4096656288516316,-2.303723339760145,-3.607775192920488,-8.469255737109833,2.9117575420633006,3.5368472694959743,18.326438856411908,9.091823192976412,-0.7585608102308967,-0.3887490153760464,1.3690309203892344,0.2700640467037565,37.46159236340502,64.87869579318811,65.03677707099327,0.0,-0.07094364525815612,-0.16277748453525717,-0.2018039454914009
204.12000000024653,mud,3.7370513925614253,14.405204200278751,6.910651949138824,-1.6825356339530122,-1.773514205448138,-1.9713378370134196,-4.140800852628641,-9.860853853363022,4.710349008935378,3.713111666160637,19.460631983979418,10.311543207130144,-0.668449211191188,-0.8916710325556858,2.835665872005517,0.26335681768371094,50.33274685501088,71.83707012742641,67.31512395549666,0.0,-0.07798151404278807,-0.1663933169720104,-0.18891503328573697
204.14000000024663,mud,4.655676439763251,15.764314435796162,8.148687366895528,-1.7844219818101688,-2.090029915594167,-1.6184394376873539,-4.714409786875552,-10.753441504815891,5.921656349162511,3.690185205544654,19.948951333441826,11.253884771961669,-0.38892715952040846,-0.9716488851256606,3.157993418730646,0.25777110804398146,52.22475219017336,73.36726892946682,68.67409107125441,0.0,-0.0830672644094321,-0.16951621694639224,-0.17507700736674223
204.16000000024673,mud,5.152774752432929,16.318977392013437,8.657372858063244,-1.796267107116289,-2.3819359048787483,-1.2612153037487628,-5.143606042829348,-10.610047912104159,6.601970009361602,3.6120423135076116,19.93245991348836,12.008885423974245,0.05193661837626328,-0.7137750284462536,2.7843259048855793,0.2534091836092759,50.97172974524239,68.20706341729075,69.61339213374757,0.0,-0.0866431581381098,-0.17368651428751852,-0.1608244800059964
204.18000000024682,mud,4.965627525624037,15.768559664622884,8.506962921812939,-1.7882399779034772,-2.6195301259078905,-0.9090258198764807,-5.148622083162564,-9.759397161599725,6.680977226822477,3.5656288071963824,19.431565956325297,12.758680801030449,0.3697839147793252,-0.16619935743349767,1.9596311440631244,0.25010381762271733,46.617702279807546,58.66376780106834,71.69484265842314,0.0,-0.0891768673968846,-0.18033365094833415,-0.14702253917236807
204.20000000024692,mud,4.194277847817707,14.516255914470417,7.794498200654802,-1.7050356093631,-2.781955216043606,-0.4327461758008741,-4.884556678789366,-8.923032923812865,6.88822574846451,3.506573900890735,18.8423588459235,13.61580224061677,0.3720332763881694,0.4054835563633697,1.26506073833906,0.24754205032377932,39.62370076155246,52.72402743160773,74.99942660497311,0.0,-0.0917063814144348,-0.18971976888199815,-0.13435476120354903
204.220000000247,mud,3.589733299147831,13.380027230401646,7.276654594932612,-1.5891547946818427,-2.8778948607539476,0.11786757537641956,-4.675138287420433,-8.421312389383784,7.549881850329649,3.4937296617449842,18.529808152451583,14.473563491597716,0.19976812753013343,0.7321833322411315,1.0767534875804718,0.24547845044510774,35.05932922283268,51.63443778781374,77.77611396170556,0.0,-0.09484745159088506,-0.2003354973781318,-0.12259469276375871
204.2400000002471,mud,3.4834893505704123,12.880063990935694,7.334462804438723,-1.543485410346101,-2.9650606795090217,0.4410144089294805,-4.634370078038169,-8.109956762955276,8.447941775146484,3.4724585169032576,18.413999455198415,15.17293656316928,0.09093267634440523,0.8061990704831771,1.1818614576466293,0.24384716493914987,34.42399590435569,52.47018009068091,79.10076994688735,0.0,-0.09879917887376125,-0.21070814093888685,-0.11116570359900026
204.2600000002472,mud,3.6428130146016313,12.798004965242598,7.706857009069139,-1.562597462550988,-3.043349699266039,0.71976543725082,-4.655261696722381,-7.764607050712279,9.449474257733756,3.3897924252853913,18.24090594425604,15.707834396152066,0.10895363700831207,0.8385672441512595,1.234897195155387,0.24268254307397158,35.4751596088748,52.0821175411986,79.46403709001513,0.0,-0.1037238897215599,-0.22052740469808668,-0.09981558050260979
204.2800000002473,mud,3.8158313700784827,12.766277020430275,8.05267258710652,-1.5763600006044136,-3.0931860359657914,0.9778122908698132,-4.646711296494667,-7.376883485268204,10.208671635712108,3.2592577295997747,17.916904638693445,16.10454527678375,0.0979353817290949,0.854776507876294,1.2346506047387904,0.24200807020447054,36.22952784639785,51.84607527235559,79.09166112296751,0.0,-0.10989117076827544,-0.23027598720029976,-0.08869698326974887
204.3000000002474,mud,3.91476922743901,12.622809187884364,8.262620476094748,-1.5185997061992298,-3.080140104194051,1.2497816114985931,-4.603172243841756,-7.714424825728626,10.428354153862633,3.1918199218856538,17.605047731806216,16.272035613501686,0.27700399775737244,0.6562291456511757,1.628966082871405,0.24182345334826846,36.251794760334775,13.501285480412593,47.157311170264165,76.41190409333231,-0.11730373244656087,-0.24025419573296578,-0.07804504905561535
204.3200000002475,mud,4.220962451000048,12.775011208839835,8.718571796174036,-1.3707983099113996,-3.0441398227310303,1.520039164225695,-4.769947908220657,-9.8090063199543,10.144288857861934,3.351364269513857,18.035132123407976,15.68216131164731,0.3125263091450985,0.055700671290876864,1.9793741627384926,0.24227013257939478,37.9996663991144,16.569052315106223,0.33467816785618987,8.582417922450015,-0.12429007298960312,-0.2483767473166451,-0.06809253212075399
204.34000000024758,mud,4.687177235532644,12.855543977481656,9.210073235939266,-1.3032333467151467,-3.064944273084535,1.7242458504670966,-5.070231231998939,-10.421946393167449,10.622795944861794,3.4264266297283394,18.22513653703318,15.121194047933486,0.5525957667574892,-0.4817921268428175,1.995721038340438,0.24349191785645027,39.5147411937479,20.017275135028758,0.0,9.749214442774601,-0.12957930334340806,-0.25306140895296964,-0.05741191740681192
204.36000000024768,mud,5.1013535067757205,12.686180972195006,9.537751965631644,-1.2883554221321194,-3.051002499912437,1.893650481146981,-5.322462298926288,-10.350083500730294,10.719088269165518,3.449775185516046,18.00781554424091,14.702019707431663,0.7361065234483953,-0.5933665944776405,1.6834366413215218,0.2454875079948286,40.144654267185786,19.928545916109975,0.0,10.334487519872397,-0.1326289739024024,-0.25468811446965484,-0.045082907678875246
204.38000000024778,mud,5.3553549564749865,12.32283776085809,9.55822919629378,-1.2853637454624072,-3.0018753184406046,2.041743448575142,-5.455513434327644,-10.170552791677274,10.286253705795456,3.441734411896975,17.47790594266248,14.390439539847353,0.8749585151397228,-0.49517347263711226,1.1227238632539276,0.24812385787373722,39.811258898694604,19.657610941213772,0.0,10.579187822542924,-0.1336180455760687,-0.25412199443962497,-0.031168687864423443
204.40000000024787,mud,5.492706533132997,11.847616200751384,9.474770847748312,-1.2750756634455764,-2.917923996099688,2.1733006594505255,-5.490425325825257,-9.995263788894363,9.72256279073239,3.4178719243994466,16.820547585638952,14.145590176717945,0.9241515875824851,-0.3510368057231844,0.5749986568727299,0.2511822842105039,39.09680037814734,19.275462451405794,0.0,10.644533937934446,-0.1330524879500864,-0.2520465974499589,-0.01613363839953719
204.42000000024797,mud,5.6054942519589925,11.415861921277846,9.410757261947857,-1.2732788540970295,-2.8094470667633766,2.282732294078892,-5.502109815650709,-9.750021340220272,9.43739473458443,3.3422075568208744,16.152757667513345,13.94683858356174,0.8913836829644303,-0.26952051845906966,0.205903260262838,0.2544554182848428,38.69733394558073,18.141509496162683,0.0,10.649171229605601,-0.13151363597594853,-0.24878094400345033,-0.0004191876773064763
204.44000000024806,mud,5.760454320015916,11.060899705164129,9.38941743027935,-1.2819012363243392,-2.6998525051132374,2.36263595749614,-5.551032641185461,-9.23117775996211,9.525059583981996,3.1720991699510153,15.41841131396881,13.845198442194688,0.7999644953855714,-0.20433972601737585,-0.12229842072342496,0.2577903631864679,38.7115412123573,23.962341812860046,31.705449485895475,52.53862010917197,-0.12957774847788442,-0.24456437133244505,0.015747596839890948
204.46000000024816,mud,5.952870607976711,10.764645762211812,9.387438339923806,-1.292225728002891,-2.5618131616161097,2.425806869166819,-5.531974045097401,-8.67346549417018,9.748468454899678,2.963968842090615,14.700058727798622,13.732938302434693,0.6944588914756296,-0.15098055095374954,-0.24589435831243792,0.2610730569983045,38.99393684600187,21.2296931266293,33.03453388293046,51.85146418474141,-0.12764333037681094,-0.23978869268463465,0.03214092545465981
204.48000000024825,mud,6.1641042660060625,10.505102968660694,9.387216745209013,-1.3012572826252113,-2.420377909590992,2.46668303161416,-5.497273801605018,-8.117323369832814,10.011847952312717,2.722106726382447,14.006797764725725,13.57162640153149,0.569856329795524,-0.11918704766937781,-0.41292742691392414,0.26425148779621926,39.3867743155859,17.195723210096894,35.04559590434276,51.11839420960114,-0.12589567854675685,-0.23458267743154504,0.04847940756434537
204.50000000024835,mud,5.966794407477755,9.890074221836898,8.982708260641942,-1.398911099750787,-2.3414355815588213,2.4304875429365076,-5.145439890856381,-5.143024435974974,11.18182009881398,2.027149238946108,12.508384239583492,13.926695472178524,0.3584066500707379,0.49210016576300575,-1.1184883357552837,0.26711329857821675,36.99681118186643,40.68618064511142,55.196175723768704,0.0,-0.1261482131555495,-0.23098663990568952,0.06459482498550606
204.52000000024844,mud,5.850941185796296,9.399621862913717,8.66556873900452,-1.401677318533103,-2.1205648765072436,2.46537848691223,-4.933357481632163,-4.645475138497316,10.966841032531894,1.5873282515727933,11.520901256235657,13.927426746029408,0.15458187318795708,0.7147155346730372,-1.1950173931162724,0.2695146057949105,35.777579440477304,39.71463699999796,56.29666594708191,0.0,-0.1289259119036418,-0.22950410819027117,0.07931506414968358
204.54000000024854,mud,6.006263163888193,9.161590751703766,8.567524498208744,-1.3418082743377107,-1.9032792008383597,2.484010746982463,-4.867705675463799,-4.347687928596342,11.815160789123759,1.349489048336956,10.966307042910824,13.671558409136903,-0.16090229704823644,0.47721206331696403,-0.7812767073191703,0.27146422388620606,36.41120233265883,46.19655953520278,55.23282473659265,0.0,-0.13353394998031434,-0.22881641070528028,0.09226013042931668
204.56000000024864,mud,6.445446935148822,9.108419856771008,8.67227706602145,-1.2752128534219667,-1.7127761688510246,2.4715143620930284,-4.9308569456611036,-4.070047307077565,13.003867647802867,1.220167358433013,10.694401345729059,13.175670658462648,-0.37717341417344896,0.04113152881310509,-0.27805673418613475,0.27312552851852023,38.644854165836605,53.97045697845289,52.21790127943416,0.0,-0.13870712009353106,-0.22765562786805885,0.10412736888375412
204.58000000024873,mud,6.995193829934746,9.08428940403952,8.79043057447525,-1.2567557697050034,-1.546927636619746,2.427951930995043,-4.996370233849831,-3.7525905743858017,13.891690449419634,1.0867052263914252,10.448791859262851,12.552292077266534,-0.45488829122354013,-0.3322333228571389,-0.008338365432374036,0.27468347679664873,40.90371799061921,59.15364821118497,48.465696719614414,0.0,-0.1434236423562157,-0.22548991988026332,0.11578995939952945
204.60000000024883,mud,7.529468671779464,9.049184067856453,8.697713339129287,-1.268322181115666,-1.3850775889944913,2.364080711157367,-5.01432535442206,-3.42423331441487,14.401379565401953,0.9204744833128808,10.090378721660674,11.892018496845846,-0.4705320207357864,-0.5943136947567934,0.06506506129067045,0.2762399656495218,42.74696225953597,61.91782222376983,44.88028441787966,0.0,-0.1471130022021884,-0.22243882706968965,0.12778492665472194
204.62000000024892,mud,7.960992811158155,8.939041352274444,8.45514303899302,-1.2710807873811527,-1.2056635676937297,2.2951512825236158,-5.017924193496023,-3.08914609073822,14.725001982042471,0.7071397814895228,9.640839668155557,11.223550838371557,-0.4850450846289115,-0.7828306429083628,-0.01545238469685677,0.2778163703727767,43.084271627969635,63.77870993549562,41.60819383893393,0.0,-0.14956680368867087,-0.21876785085162598,0.14031211287563622
204.64000000024902,mud,8.274226156965424,8.710463220736884,8.236564752846846,-1.2572268960577182,-1.0097373005279837,2.2217751391650467,-5.0085595105848,-2.711307619289898,15.003506655740672,0.4703731646735243,9.171330108655404,10.571423255832391,-0.5143446201482202,-0.9551884436512652,-0.09707102937252902,0.27938386744366656,43.00705745766979,65.61128451203695,38.6739937270098,0.0,-0.15067688336323654,-0.2144667564220376,0.1534656313419612
204.6600000002491,mud,8.488891577223093,8.430396881335682,7.979548907805082,-1.2380333032715503,-0.8089203372682583,2.1401475183472654,-4.956619271448137,-2.199159277323912,15.2713673378417,0.2592162859029217,8.696421483051067,9.96806825118314,-0.5064020667911694,-1.090735034345004,-0.16508124423396017,0.2809103907039474,42.63555431834747,67.42025672353304,36.25036823212665,0.0,-0.15027091794454567,-0.20938650041749093,0.16727838073716114
204.6800000002492,mud,8.59699258559759,8.076257692842361,7.6701166855798695,-1.2333880960552877,-0.6107691342870358,2.0474475519415725,-4.835935580937828,-1.4835240019843896,15.485896878588601,0.1124546130874915,8.210687186162962,9.427219084150869,-0.42910102872973477,-1.1794603668435435,-0.25512457997337046,0.2823676651449647,41.89229590755361,68.76375581646317,34.40759829132346,0.0,-0.14808152899097154,-0.20342320261669797,0.18163456107395856
204.7000000002493,mud,8.586244848344261,7.637390293381371,7.30271899696953,-1.2424565737669777,-0.41680113366219185,1.9455297298508158,-4.677591848844469,-0.605272626194763,15.613158690315075,0.01589658443790465,7.706219570189305,8.953643312415206,-0.3026956377083677,-1.2152527318401254,-0.3799407111389959,0.28371829560844863,40.74871298397167,69.4162168430809,33.16304747159595,0.0,-0.1439921984912512,-0.19660474268545378,0.19623975951930941
204.7200000002494,mud,8.489009343832445,7.129734442198838,6.900552285433637,-1.2560258041618235,-0.22437574581746028,1.837549897291443,-4.501182100462116,0.3557817429907648,15.666129841171887,-0.03809648963508361,7.19051531239564,8.554327058424919,-0.16161475997953847,-1.212799245326271,-0.5121184534065323,0.2849127478622809,39.40056816046127,69.54126841605203,32.543373722889875,0.0,-0.1380128017091674,-0.18903227624818864,0.21067692580482172
204.7400000002495,mud,8.348220459449735,6.5919179715916565,6.505726071604038,-1.2587909693602382,0.11899480046152446,1.7118926026271355,-4.330978997029931,1.3475132111706931,15.67673922746359,-0.05552958526094387,6.687487760462822,8.232611751686273,-0.042836540863792974,-1.1748115684682705,-0.593785743385406,0.2859001093066688,38.11086745123107,69.36161083912717,32.896644137678344,0.0,-0.13026297963603803,-0.18078945300186394,0.22446705665111924
204.7600000002496,mud,8.187060957917227,6.05755545352472,6.1392648568818045,-1.2602116001842483,0.46283852772630335,1.6115129240450319,-4.197738267017256,2.333146241831211,15.668162096316497,-0.05365312965368463,6.266259872090649,7.890604368305774,0.12051654919540858,-1.101878819271381,-0.6123253759764543,0.28665483624845733,36.93528488907625,69.12650084501777,34.1137872467752,0.0,-0.12102848561531233,-0.17187133163094337,0.23708264258724676
204.7800000002497,mud,8.055427225736107,5.515706731536458,5.810611447249885,-1.2616978299476636,0.6604316782888354,1.4974625845279164,-4.101450943951928,3.276356600717971,15.685212725159218,-0.0063383634113293175,5.7824164853042,7.685041675282397,0.21892252728444195,-1.093598822681154,-0.625991264896512,0.2871672933233202,36.073687537555266,69.14024947553271,34.85447175133253,0.0,-0.11055370785334329,-0.16233248413950982,0.24811002749548666
204.80000000024978,mud,7.949792285963904,4.986647787783139,5.531445501705998,-1.263095950259629,0.8523638521087744,1.3839419828138757,-4.065159907168128,4.20527437262488,15.703016197808754,0.06612351438643482,5.3014998060250775,7.545737560615651,0.3083162316679546,-1.088032176215152,-0.5952834844099654,0.2874333462642662,35.49869887753008,69.18851038839522,35.88310486987073,0.0,-0.09906060935777816,-0.15216795566160715,0.25722038868772884
204.82000000024988,mud,7.874439636159504,4.4490020309848415,5.294769735093483,-1.2638542146300418,1.0351085393781951,1.2718073224872493,-4.087537774472572,5.115150031798863,15.709827320201091,0.16252400524482297,4.827508978633318,7.429797601956567,0.39174684894481043,-1.1012521204985166,-0.5443085308150288,0.2874656352062787,35.24678577273421,69.23731073790896,36.88588278865001,0.0,-0.08673264557141633,-0.14134985534429903,0.2641530952176208
204.84000000024997,mud,7.791370500873612,3.7880653149557575,5.055069431670522,-1.1663422240631809,1.9321114018563876,1.9632692602661312,-4.183370507421387,5.911827503263316,15.74013682768759,0.2629670148651813,4.233376469253157,7.355765877910901,0.34713028999330786,-0.9442051614995305,-0.14642636524460192,0.287293133224317,33.701251706059715,6.4451489606408465,69.95247880821695,38.70515794434199,-0.07368183566788396,-0.13001737685706338,0.268771142033222
204.86000000025007,mud,7.426244009396551,2.9497819489891697,4.224546596004904,-1.1159502225273268,3.048707943654648,4.178204901786777,-4.42061452211578,6.371122292895967,15.71941784704963,0.16408753375645974,3.1546466319076143,7.212017131724668,-0.8415512415458679,-0.31604565201331114,1.3600316525219114,0.2871507855860128,28.449913582184028,31.954411505077953,70.48813333289952,41.376990750600704,-0.06050124874259579,-0.11980851119746208,0.27144360406205603
204.88000000025016,mud,6.545176600532294,1.944449249299439,3.075660883898377,-1.0645268192943398,3.748297579824981,5.908560626946778,-4.5197487745309335,6.909033885399891,15.254806771596323,0.0623825521019894,1.9703990016940551,6.76694296970453,-1.5835344300839052,0.12430474822806972,1.5050670637874806,0.2875325250964322,20.574346280601024,44.01553678777032,67.23748437615558,42.09508680228067,-0.047803004261621165,-0.11291615467891065,0.2729928128562449
204.90000000025026,mud,5.30869766414059,0.9298734728556368,2.0729625555325004,-0.8996706278183495,4.754691567665843,6.300948006464164,-4.373692758769165,7.667078037636642,14.670577957706344,0.16658913123117153,0.7912574490754366,6.369964426187164,-1.4139608176733673,0.3668213721033412,0.7861381173298564,0.2884763298073466,13.135853064881118,43.3105031410722,63.02687574846089,43.337975086818204,-0.03524347926147442,-0.10930811278532233,0.27397841274361023
204.92000000025035,mud,3.9208062133053,0.10988667157584697,1.104840113052207,-0.6660860083896534,5.834140504156156,6.432616604266663,-4.125509366133166,8.598698573300927,14.180634672901487,0.3661041955345201,-0.38397848459162476,6.109519760983039,-1.116166919779613,0.6047471889237779,0.07826768196565928,0.2897080261764023,5.829242189994545,40.818350979840055,59.347989174944736,45.52579492996611,-0.02271998091286245,-0.10799228481230876,0.27465655718680815
204.94000000025045,mud,2.920251069083111,-0.41869915992428286,0.5115172237329739,-0.4471501974105544,6.943367635175161,6.540877518937018,-3.850718096264745,9.593550975782135,13.87003860684452,0.6228274808843051,-1.5585573997290338,5.967619468211293,-0.7977681902321482,0.7603680148822617,-0.2614331914707443,0.29096542137157577,1.9248340072655987,38.08107158538119,57.117486290151795,48.3682216037534,-0.01042522643948533,-0.10797127957374407,0.2751247773418555
204.96000000025055,mud,2.476769588265623,-0.774240747742845,0.3111883137316249,-0.42263471364495797,8.077619790859783,6.580364770674212,-3.705216632585134,10.538575007990502,13.743355375972833,0.8040188540830056,-2.7420726028162954,5.876003229867952,-0.49137406994273597,0.7838177026030243,-0.3493398040060103,0.2921185647408102,1.010038964686212,34.752376442524366,56.45172088448655,51.32082429884544,0.0010201708401650458,-0.10875629946160599,0.27521335598802077
204.98000000025064,mud,2.1850078706056895,-0.968813390959796,0.1943932590146633,-0.4997976941641368,9.206503854320975,6.671496376604696,-3.616323245247677,11.4598263118424,13.727894477513678,0.97018180612113,-3.9176218460179686,5.814576083519874,-0.22470188924767184,0.7908152195425325,-0.3678979533480967,0.2931215268095848,32.17212184069146,56.68966616320166,54.148244599947404,0.0,0.011268507849403083,-0.1099454639142697,0.2747672525695945
205.00000000025074,mud,2.060784835711657,-1.225981015674416,0.1602952138862157,-0.6409547122773012,10.352453309299054,6.7142796142003816,-3.5590462302625636,12.369852528409819,13.761023588881963,1.1360132552715498,-5.0776680782719685,5.765302060577565,0.073838696524216,0.7147513128561984,-0.41160572861549444,0.2939730740787016,28.66502139021481,57.36470651493539,56.271851148641744,0.0,0.02025889064788842,-0.11118163015872111,0.2737144455105545
205.02000000025083,mud,1.6877074671456418,0.35491646429171486,-4.174110669391487,-0.777024753818777,10.089953146418685,-0.5345941828327039,-2.858005705317571,15.881239859956272,2.0880786552256083,1.4668400721937305,-2.643811541437734,-3.379151330456004,0.615513355220916,0.3984590596654442,-5.225054159397293,0.29283119255888695,15.486722482193214,29.492157178719758,24.215917755032947,0.0,0.031184007260688405,-0.11879575667480892,0.2710222783681478
205.04000000025093,mud,1.4599736345060488,-0.36640258991234753,-3.6382939472891564,-0.8406126082481721,9.265373571146128,-0.5358847728606051,-2.955285864608619,15.68012183081621,2.64623510780644,2.0454424058315284,-3.364770165216978,-2.715210476258875,0.6362503369076791,0.2555383283049395,-5.345647288510447,0.2894899152686233,12.715063035251763,29.806410001905665,22.940546310045864,0.0,0.0424108342912504,-0.13057855164592658,0.2655662318753534
205.06000000025102,mud,1.3543384593638979,-0.8298777948065921,-3.154986039820531,-0.8997580286453758,8.944200248788452,-0.09890583108744089,-3.0165197355733486,15.705496243699033,4.370497545800898,2.4135524560208754,-4.410124954614239,-1.5164109735756774,0.08334817100271542,-0.1715471322792317,-3.995959565565848,0.2840750862961359,13.603520016362047,42.59176658110248,31.155380057431096,0.0,0.05342863079961061,-0.14421224465530372,0.25755856678397854
205.08000000025112,mud,1.3395415316483184,-1.079510860396157,-2.6754621622487242,-1.3838603889034162,10.229135075809959,1.5479952807503246,-3.3108295098638867,16.718065358477446,7.169159527654857,2.9894931950389028,-6.471392206218896,0.4967918682033723,-0.572355381040248,-0.2906972266460985,-1.237130718703828,0.27719401338716787,21.56729008579975,58.73145264368977,48.460036902865525,0.0,0.06395078171116456,-0.1557188282509768,0.24764206856600846
205.1000000002512,mud,1.5017403411294943,-1.4107896646457596,-2.3019336037194016,-2.4868262857360666,12.527778187203587,4.3281859599732595,-3.552306058240199,18.343973760652297,9.10317623030712,3.6293349148999505,-8.451300367367056,2.9232457550980318,-0.7767751940668807,0.3633637730285314,1.3644532469326451,0.2699159447312886,37.39922368438847,65.09656356039363,64.81694951439816,0.0,0.07316310480846364,-0.16240938052724774,0.236147523539924
205.1200000002513,mud,1.6868918696277424,-1.7745860368016988,-1.969656193890061,-3.74137354497982,14.39532418129287,6.892455406495047,-3.727901804983115,19.47542342941559,10.322199084380054,4.16495191178565,-9.840993947568496,4.722370588752966,-0.7025083102771399,0.8668838834808638,2.8288240985595436,0.26321978402809165,50.24225573030818,67.3883706703239,71.7574633765597,0.0,0.08032763749091795,-0.1659043062190311,0.22323205231181226
205.1400000002514,mud,1.7881165790918012,-2.0909075307618608,-1.6168933599279396,-4.658950996541269,15.751537431562413,8.13048622609405,-3.7051162776182154,19.962056649511243,11.264200808151267,4.738592112803149,-10.727304262260706,5.934394970440215,-0.42641337005533175,0.95541013896671,3.152473038806397,0.25764273688026473,52.14300964904445,68.75606205357846,73.28423259774785,0.0,0.08552789974456522,-0.16894143159152314,0.2093727638341648
205.1600000002515,mud,1.799757683057722,-2.3827137856067413,-1.259892251982795,-5.152943285291469,16.302304953559297,8.638052730327354,-3.6276501253321807,19.943259803480927,12.020626281445196,5.163968781407801,-10.579443171577676,6.610877581322311,0.024034328214635886,0.7096276897544281,2.777605127006183,0.253287156975017,50.88579011514584,69.71018658164574,68.09556967089475,0.0,0.0892365146616889,-0.17305767715992063,0.19510788556973735
205.1800000002516,mud,1.7916492633019565,-2.6199687926582467,-0.9078188084021841,-4.961451597758618,15.750658604841465,8.486764961829712,-3.5798064868750226,19.441863734905855,12.770418087841229,5.164926475099092,-9.731932672854619,6.690299159495233,0.35908947192547713,0.1735522428495127,1.954896169976477,0.24998556346295697,46.525849684893025,71.78630274816493,58.59714558873815,0.0,0.09195573646644964,-0.17967450665768986,0.18130437367855431
205.2000000002517,mud,1.707113571649025,-2.782427962609847,-0.4302411375391357,-4.191686827123781,14.50236191644289,7.777819582525849,-3.519388572708535,18.854375165648953,13.624466327722807,4.899651406825047,-8.903044610748161,6.90353012426844,0.3789665656125325,-0.3942608907394678,1.2650562537281471,0.24742594761224404,39.558559624235755,75.055804490907,52.73200276100064,0.0,0.09473044234368318,-0.18902598051329453,0.16863659137927162
205.2200000002518,mud,1.5909532664943635,-2.878484762162307,0.11896671284423099,-3.5916437501409146,13.37151718817734,7.264812368409611,-3.506401339732372,18.542779435377692,14.478333895421745,4.691070830081511,-8.405250009712848,7.569209738168123,0.2179306170332394,-0.7236605808890142,1.0788567304444932,0.2453645562883004,35.02410903605849,77.8008414701846,51.673680986116935,0.0,0.09813539981014949,-0.1995888127700836,0.1568690407406675
205.24000000025188,mud,1.5453211431159812,-2.9657656370247656,0.44188495650115356,-3.4875801021176978,12.873744673997404,7.324420323770225,-3.4850195274538405,18.425935168848948,15.17511464751891,4.6507694751631075,-8.093896522588942,8.467363783057625,0.1123870520503835,-0.8010063176193449,1.183087132732074,0.24373623179738302,34.39717122058431,79.1110122562218,52.50322921093406,0.0,0.10233942106195071,-0.2098915857447526,0.1454238219878257
205.26000000025198,mud,1.5643311632072687,-3.0440407601074,0.7205043994414324,-3.647012689613335,12.791158725595745,7.6962606119362995,-3.4017930988714764,18.250963346778985,15.70857826884679,4.671357035903695,-7.747650682485331,9.466563794864081,0.132000133244488,-0.8338976523432083,1.234223525312906,0.24257499345925562,35.44374577023042,79.46816680476392,52.0990008373183,0.0,0.10750180626070291,-0.21962532914928354,0.13405063637066564
205.28000000025207,mud,1.5777674699428172,-3.0937906634940697,0.978505088294713,-3.8196885329910373,12.758422513731928,8.041085185426757,-3.2703622901986833,17.925276612634008,16.104296156703455,4.661970053748086,-7.359452162250344,10.225524533198096,0.12120538125732526,-0.8512457413193456,1.233293107304064,0.24190367632193224,36.19285889816604,79.09081049320736,51.86315887647732,0.0,0.11390412152006715,-0.22926957423528183,0.12290376740412523
205.30000000025217,mud,1.5187447344923943,-3.079839505137566,1.2511714720971572,-3.919066608473589,12.615046905470827,8.249892565119533,-3.206605852729196,17.617736707778292,16.265784427017753,4.6167127778452715,-7.7007295890230285,10.442140488926524,0.29999915367183444,-0.6412393486665297,1.632067850561268,0.24172237926569995,36.21644885737761,76.37031743808822,13.62307221065874,47.155507058394186,0.1215483536164077,-0.23911943651642154,0.11222316927674253
205.32000000025226,mud,1.3715365773286203,-3.0447639660445187,1.5208775678812332,-4.2229269786497,12.768738632083702,8.705463451381132,-3.366214124069471,18.053296759387308,15.667565817860005,4.779349674944175,-9.804600603297834,10.157861709057295,0.31579602552673436,-0.035850943558056514,1.982742401911617,0.24217496633653665,37.966930235003446,70.3167896098928,0.2584162815798222,16.745561786638522,0.1287171088896721,-0.24710036077784708,0.10226122373573145
