time,terrain,torque_0,torque_1,torque_2,torque_3,torque_4,torque_5,torque_6,torque_7,torque_8,torque_9,torque_10,torque_11,accel_x,accel_y,accel_z,height,contact_0,contact_1,contact_2,contact_3,roll,pitch,yaw
300.06000000070463,soft,0.8638280203352106,8.350973919652072,-0.5817450548777252,-1.3631013371440415,-0.856967738932296,-3.152624067694237,-2.2002900686079814,-3.630158320122292,-1.8887031575866118,2.842806853026258,15.150523882842295,3.97114594635619,0.24193977756883692,0.3194930685357495,-4.803621541097996,0.28375958807516866,10.665947376488221,24.01108362270871,39.509765231762294,0.0,-0.049294024302079846,-0.14643638811640686,-0.2237682931284888
300.08000000070473,soft,1.079598414365527,8.970648776151132,0.6665036120362231,-1.3152224196517737,-1.1168601436513819,-2.6638840817136415,-2.5483072661886825,-5.147844070475814,-0.1603997808584552,2.8579285108555297,15.561054423365674,6.327121217969566,-0.4293326811550609,0.46584073929746894,-2.560770845003957,0.2764787807596058,17.789149338832175,38.03509416668067,52.70203278804693,0.0,-0.06066525809888947,-0.15910109452846552,-0.21449742846860156
300.1000000007048,soft,1.8683857557908488,10.024070449291571,3.301994000426337,-1.417347871664238,-1.4700814328441143,-2.2845069709674872,-2.7045679325053618,-6.809836138419204,1.997178729465105,3.1340853988798263,16.63385781311625,7.854577152684195,-0.9111933886707068,-0.1297448054419524,-0.21688965473938418,0.2682717081322415,35.8235296613847,50.49550411510991,57.179687713366356,0.0,-0.07098595220805277,-0.1680891023723813,-0.20433472605560418
300.1200000007049,soft,2.6972682037836577,11.202614085746625,5.1834619800909945,-1.5510386775171052,-1.7993279245562048,-1.9217984709322113,-2.9715053669669715,-8.096133199572817,3.555123364680382,3.2849664228458026,17.48071450507137,9.016113466199005,-1.0060629907980423,-0.46341527842630054,0.9042406827107266,0.2599865851206371,43.56248684360332,57.06621200908235,59.73491092084694,0.0,-0.07936083271443362,-0.17486771201584447,-0.1932122997789404
300.140000000705,soft,3.4663372141233983,12.448300581864789,6.326516792394269,-1.606759426039608,-2.102307446330883,-1.5540334343452216,-3.427868100148347,-8.87336489369393,5.045332619901783,3.2708875310461765,18.06241554666907,10.052738367669438,-0.7663279748473791,-0.5820797851599663,1.4683823307672732,0.2520657887712052,45.20678903490676,61.75165945572834,62.09820954156195,0.0,-0.08613945451877132,-0.18061482271575463,-0.18100231687883295
300.1600000007051,soft,4.167272061424317,13.566654033097542,7.088344386329574,-1.6292633617571037,-2.3647516570020466,-1.1921299428501642,-3.919927346161085,-9.244878506884513,6.571351465564794,3.1933648309488323,18.41329917078151,10.994030410907047,-0.4484724809680017,-0.6020031725594591,1.8129618168579849,0.24473129043050157,44.69922696938559,65.56776102661254,64.23507781117301,0.0,-0.09158471828258366,-0.18599901835747948,-0.16785485336764558
300.1800000007052,soft,4.751025439483353,14.337701079398009,7.777364029370877,-1.6333445937868136,-2.584822711054782,-0.8437365601733622,-4.355199648839176,-9.354658482168706,8.015250523332542,3.1143745504881233,18.55559990619632,11.841706039060945,-0.28262228890512003,-0.5854533786485835,2.1476490379574633,0.23812353739506995,45.677845589889074,68.18758219780008,66.14120828074785,0.0,-0.0957943648017535,-0.19144022679842748,-0.15403600425474775
300.2000000007053,soft,5.161666815278284,14.664354542555971,8.440632168806,-1.6592480254654842,-2.761735173056211,-0.3937830966099696,-4.663356473635434,-9.215134392043787,9.27856576339262,3.079865962790686,18.540474572721227,12.516438685046678,-0.13943025187510888,-0.4959963182417859,2.54339730507456,0.2323870233692782,47.56824180821212,69.19853493299364,2.7713272512020666,66.78429901376343,-0.09860422857858,-0.19734258853552664,-0.13978238826424408
300.2200000007054,soft,5.4571898082853485,14.722531022435861,8.880173202367224,-1.6627718349481029,-2.893985687634401,0.09710037941359229,-4.893291073674964,-8.913155976394302,10.389891223708071,3.0653882808458834,18.325019927625696,13.123328810748166,-0.15541125719279414,-0.4582505450750941,2.6510154231417373,0.22765780171650518,48.34294082165385,69.29700645326895,0.8174904274376393,10.128162858763723,-0.10001510526487646,-0.20401424812345834,-0.12532382941263676
300.2400000007055,soft,5.637647722292211,14.593961885209808,9.143858974596224,-1.6607498684255444,-2.9911663743153003,0.4048404315170777,-5.066716409440902,-8.490636246287306,11.339585949790225,3.0595487625886832,17.97992754588068,13.712308037382147,-0.2212619391127299,-0.3868223488201211,2.6097931640458563,0.2239751047857845,48.18077269236194,68.6274012275842,0.0,0.0,-0.10011164401285728,-0.21174558064438834,-0.11075964881838425
300.2600000007056,soft,5.735009866399201,14.390051042602181,9.331718336197163,-1.6278477897503338,-3.0436466514347487,0.706348047848568,-5.143723330628223,-8.558500166203173,11.762590920774565,3.0700856055731114,17.694687885846463,14.057148174270088,-0.10026104365427005,-0.42366620987615894,2.7331668898301804,0.2213427122824958,47.729340749904104,5.150474326956786,0.0,1.172364599110572,-0.09890202608080685,-0.22040523664916062,-0.0962867614121859
300.2800000007057,soft,5.787658123297353,14.146470833679258,9.477467747576869,-1.5976014133186482,-3.0940136768971502,0.9780374139992403,-5.203537259124328,-8.628524873806183,11.955404637767273,3.0620860082087433,17.41087835758114,14.223104123775038,0.06986905726252875,-0.4292633593473845,2.5180498814540893,0.21977098008463558,47.03119332304004,8.866174586312276,0.0,2.0121670757245393,-0.09636049608137141,-0.22927919312291953,-0.08200902717265246
300.3000000007058,soft,5.828163574191086,13.836222696849108,9.551722680116702,-1.5621520225388044,-3.117743930329646,1.227192072015082,-5.25661017370091,-8.470638007271598,12.10372454354293,3.0530688771052414,17.04292558476619,14.330204672620813,0.13533679539001617,-0.451689999930336,2.279609541671125,0.21918832846101305,46.06658578016147,8.386705342254956,0.0,2.356000342935356,-0.0925506412793018,-0.2381553260633542,-0.06790957474250511
300.3200000007059,soft,5.822585383798694,13.45092986029168,9.562208978748838,-1.5337164436846114,-3.1152582739201256,1.452528362964149,-5.295815574593765,-8.230070545053405,12.237598196010392,3.035821559015878,16.600615557756953,14.398180289161296,0.19440910686099952,-0.3977534454383628,1.9402129330658078,0.21949795674383157,44.65907776569057,11.984148122829652,0.0,0.0,-0.08754290325331288,-0.24695596076320833,-0.05396193271119852
300.34000000070597,soft,5.753544424439338,12.939476057289394,9.72171849311889,-1.4860714560245665,-3.08393338398636,1.660881882550946,-5.304393134346784,-7.892912693730803,12.331473341519317,3.0198690457701924,16.162748866797372,14.416556444068027,0.21411349125407253,-0.36275538897237125,1.6747620997625352,0.2205691816367584,42.94464175596013,12.327445841142223,0.11368794832627832,0.0,-0.08151923570219041,-0.2555342782524626,-0.04024697575873236
300.36000000070607,soft,5.73179108763645,12.518429888731793,9.672631301557406,-1.4499946247624085,-3.045583814764001,1.8400894818055393,-5.31232619714558,-7.499013508038425,12.406520356066746,3.0091269319516907,15.628711174540822,14.51365115840718,0.23665919327419777,-0.4082413582236134,1.3365011590421891,0.22228218850822146,41.644185617126695,12.5557460986785,0.0,0.0,-0.07459856608584974,-0.2637540332839692,-0.026695105867990402
300.38000000070616,soft,5.668882091287522,12.097354602500626,9.585859936284864,-1.4218546662240494,-2.9746694744886772,1.9973589753599663,-5.319568880950482,-7.022758295731808,12.451609459423825,2.9754549049084127,15.100645386437861,14.562175233163488,0.20263646862370607,-0.36030761221253915,1.0680978239734726,0.22451565340725907,40.25914814477814,11.702800781309534,0.28751270700259246,0.0,-0.06689575985782764,-0.27161283678665055,-0.013308036497262156
300.40000000070626,soft,5.576202366071944,11.668848545985497,9.462110820238477,-1.3930567905941789,-2.8918815017114596,2.1312945443181066,-5.300722270135804,-6.511006501659907,12.440100210888932,2.937014188164264,14.58511343929471,14.555491886538682,0.20287058332746183,-0.31644544664312096,0.7809654402293673,0.2271616490291349,38.80905517473799,10.180190310497435,0.7840332617321102,0.0,-0.058593631017576885,-0.27904260494541233,-0.00015221317674261664
300.42000000070635,soft,5.390153195973561,11.193751792325749,9.282563924629171,-1.389372624703765,-2.8011771531997915,2.2410905649079274,-5.205789806658875,-6.237710473434741,11.436066929943124,2.8752830162136203,14.052818780517622,14.532720941333853,0.4537542577868557,-0.16216960107418757,0.30094909133528475,0.23009304622124582,37.08627881624111,4.236985796805032,2.9561456898578022,1.829588600776451,-0.04998456831517139,-0.2860867885750262,0.012573311296188605
300.44000000070645,soft,5.18432557277662,10.728837919659863,9.031829890546714,-1.340287486821813,-2.6929533567485233,2.3419683531487685,-5.018167157684077,-6.345369431196357,9.705566414207903,2.8333084487246007,13.517161277312763,14.520202983481658,0.6875682292828225,0.037420005178140876,-0.19197870785187043,0.23312019702384643,34.75691280370566,0.0,1.1492004171622638,6.644076022784508,-0.041638511451512865,-0.29277220059205666,0.02433995621691282
300.46000000070654,soft,4.975672123387908,10.302526971861646,8.777558545828471,-1.2883316115989647,-2.5565560081513024,2.4248290415755136,-4.911286538627023,-6.395018807146949,8.999366362098009,2.7719003083395153,13.078341735510932,14.4443032770901,0.6934205394073502,0.08890066760768382,-0.500925282756567,0.23606148203522984,32.80555374472929,2.964422976091375,2.707217335807633,7.240939292885739,-0.03385389882506533,-0.2987120669574413,0.03497187072533633
300.48000000070664,soft,4.470142435936575,9.63318381610622,8.167108400874335,-1.17184738715479,-2.40353477346566,2.499646369869306,-4.866518924609942,-6.039764588194375,9.172851476181592,2.7245487561796664,12.79801072023084,14.293769738406745,0.6566189749843209,0.17015118481880567,-0.8816156911731036,0.23878484238550482,28.64235003028684,8.7937002945402,4.615475161200196,4.760270306791931,-0.02669259212720148,-0.3032209624974246,0.04475038449782571
300.50000000070673,soft,3.927959943397963,8.7109763245762,7.373198108705651,-1.0405977156026172,-2.2453083706871046,2.5528896255019955,-4.770291766427589,-5.2493170712577015,9.674699125884896,2.7900110952746857,12.632446683040996,14.152127186941195,0.6067673502089653,0.23153046411794614,-1.1782586433214621,0.24114545778069657,24.50609105847367,10.681810898810912,3.9806926237575073,1.02128480247282,-0.01967019959063596,-0.30554209746640426,0.054336946991844284
300.52000000070683,soft,3.6989482101255735,7.989572457368689,6.878122031406532,-1.0030871364634404,-2.0940580964939413,2.5639335222396404,-4.684933328702017,-4.29286743227658,10.237631628548163,2.8609600451905206,12.474556180144054,14.045671282611687,0.5927111099582333,0.18412797701264344,-1.2230929483617707,0.2430378560759034,22.973794335688705,9.647434225639193,2.552154040528848,0.7170661603762132,-0.012470644597813437,-0.30532376358755814,0.06427929984053639
300.5400000007069,soft,3.817674167208269,7.652143461682256,6.7917763510152,-1.034798919114481,-1.94771333311878,2.5399401360837626,-4.668806362095622,-3.4164747465008807,10.784102977296303,2.8450732728246986,12.232453259633491,13.957591240150848,0.5706386780417967,0.05194434122838154,-1.0583392866442223,0.2444517340088916,24.010334559565734,7.521907963710284,1.0756759124408248,2.225916959063238,-0.005276347943304417,-0.30279159977623527,0.07470366750701364
300.560000000707,soft,4.141119806875095,7.523093145928715,6.958424650445015,-1.0923338344973947,-1.796786470044892,2.493082952766339,-4.71121941093523,-2.6926606498071113,11.299152789402838,2.737795752059466,11.886909468188168,13.85748720911811,0.48953891620691237,-0.10187204392286703,-0.8192595924757954,0.2454533681975148,26.682106030387853,5.116016503834022,0.0,3.4156088317942945,0.0016905152374834863,-0.29848698726672296,0.08544829133703725
300.5800000007071,soft,4.440377963254283,7.382247413917922,7.136172011113412,-1.1488612273911016,-1.6316804237747853,2.4336565388576776,-4.7730245314986135,-2.0948852203102337,11.759829017302831,2.573014861410261,11.476771994322668,13.719899958202065,0.3566757770038999,-0.23675339269192736,-0.6344575802875467,0.24613436340400185,29.318429791505576,2.193509456722436,0.0,3.6083208591707,0.008362450151782615,-0.29298908418928754,0.09625130035185137
300.6000000007072,soft,4.664941232966764,7.218942702390073,7.165582976518358,-1.1597409853939848,-1.456983182419176,2.3706724967250086,-4.801499826193229,-1.5465010903860223,12.134480164716669,2.402139600037044,11.043785125850823,13.550444475660859,0.2684372239515137,-0.3161400340834988,-0.5581266845031291,0.24656254207171882,30.52467744427212,0.5257869426173075,0.0,2.731174141616346,0.014813362757173612,-0.28667906540912785,0.1068859684283747
300.6200000007073,soft,4.841036755694423,7.031992793433558,7.105803013288073,-1.175032742620051,-1.2732962443840732,2.2956440613911733,-4.808645714411736,-1.0100457824874498,12.422873803845516,2.2253598986055128,10.611101050969754,13.338062922184985,0.17210301594290187,-0.32665756975162447,-0.4581241699805609,0.24677084231813615,31.848296855620177,0.0,0.0,0.5497016575027892,0.02121627456482312,-0.27971908337777895,0.11728072647604613
300.6400000007074,soft,4.979058111551491,6.86736916218652,6.866834542288801,-1.190653941387388,-1.0895330650225215,2.2105907695965374,-4.8052564541486795,-0.5054815123757068,12.647297067978053,2.0513212938048344,10.188162503200747,13.054217841948038,0.15440272826326545,-0.3917975966579714,-0.4244763638282485,0.2467966633325867,32.42542635671341,0.0,0.0,0.0,0.02759445203475651,-0.2722567117819754,0.12727315928691518
300.6600000007075,soft,5.048071342975188,6.592008353615542,6.677054130404316,-1.1830789250694935,-0.8962323695236629,2.1242585522369595,-4.79136237004523,0.050330681853530734,12.784242291442816,1.8964140773700437,9.776324826491681,12.754906790990711,0.1954490940840862,-0.48937782814841535,-0.4335971904011233,0.24665330281298273,32.342332583176606,0.0,0.0,0.0,0.034110283330581595,-0.2642999822202458,0.13674181043124467
300.6800000007076,soft,5.076037674746949,6.24651026761698,6.478553318637911,-1.1805149966305546,-0.7042675835386984,2.0281656492205213,-4.770636896913261,0.6374268454726115,12.85715522026733,1.7694524760494377,9.36154201933888,12.459092964859412,0.24570528309390668,-0.5693493782314253,-0.45015599200933687,0.24633621389420696,32.29191436359567,0.0,0.0,0.0,0.04098194684481272,-0.2557664242125465,0.14556142871925387
300.7000000007077,soft,5.092055859165587,5.846304440546566,6.253615696449933,-1.1722216045411709,-0.5113144784413942,1.9264956414991063,-4.7263209475330665,1.2493407914578283,12.87837374590684,1.6928870990177178,8.937604363475565,12.179407475327562,0.29933717454065734,-0.635360249179238,-0.47228250673084887,0.24583894358926506,32.182748204693794,0.0,0.0,48.0651131453503,0.04842875041608043,-0.24660375879342913,0.15358690093586252
300.7200000007078,soft,5.080078458035713,5.385886358402685,6.016622903883453,-1.1687186942563839,-0.31853409131268323,1.819409998022258,-4.679930061932845,1.88763551214862,12.855803878862147,1.6481372222107522,8.50362824596143,11.917893984449051,0.3561701420898992,-0.6972917063946659,-0.49423609626533777,0.24515285848442195,32.124054091358026,0.0,48.3118159282105,2.400000982603785,0.05661985115847331,-0.23675039263513553,0.16067746534224941
300.7400000007079,soft,4.997239087710357,4.861516189053111,5.688738696858614,-1.149939236292329,0.16530617791189628,2.1888281143218062,-4.677924035858593,2.49993714595173,12.816500099683754,1.5880811309547576,7.994239540568158,11.68000559801512,0.22656261821601398,-0.6409657148776744,-0.25925703761036517,0.24428486363066607,31.223625533084054,4.759327494921616,0.0,48.606938812732636,0.06555348526547408,-0.22628131553009945,0.16671344301114097
300.760000000708,soft,4.871921311749658,4.375187769076328,4.998440530138695,-1.1599971233413595,0.6498101231527171,3.335369523338139,-4.676804976183991,3.061822565533754,12.697577309455529,1.51064461040158,7.344545100378237,11.38547565210281,-0.3537918745128278,-0.33011134094346234,0.21053985084592922,0.24335241125093568,26.888887198835295,16.274898557369347,0.0,48.3544375832883,0.07493971320388178,-0.21594060424392944,0.17172473723415577
300.78000000070807,soft,4.613651929875912,3.7524341168803494,4.242383059395681,-1.1705486028926715,1.2453493842869379,4.058680346628554,-4.660165386859265,3.630474683349032,12.521308467988174,1.423816544552571,6.588550496511607,11.038391058913486,-0.5630843298255143,-0.15198765488473778,0.29602664941204904,0.2425026593542261,23.305160886854818,21.688385366956954,0.0,47.807672567092524,0.08442296448845746,-0.20661675818732467,0.17590334727614218
300.80000000070817,soft,4.311596538785242,3.029659212046835,3.5385871097152766,-1.1660090633811024,1.9576294926497289,4.503365941981514,-4.613694271221317,4.262431973006354,12.300233005110577,1.3615102419671712,5.784255431188669,10.682534790014573,-0.6064001840213236,-0.03900977048347237,0.24562328362663552,0.24176809997074786,20.271938030077646,24.51524839087356,0.0,46.96248747363601,0.09383748784616958,-0.19852811442090243,0.1793966715128712
300.82000000070826,soft,4.045514381171557,2.2726495994262943,2.8676678204157815,-1.1603733134375827,2.7461494036774154,4.837567912216873,-4.555365330328114,4.95397070958776,12.06809800960761,1.3155234961330147,4.926825312541469,10.350566015206944,-0.587490437602026,0.0474694278609267,0.16146724146534688,0.24112877674764546,17.67066580946001,26.338191312585693,46.02198859681882,3.5748020576893667,0.1031122088304688,-0.19161385324318192,0.18230521824019844
300.84000000070836,soft,3.819865306290889,1.4802690889757268,2.245773812639124,-1.1598393140054999,3.5931749177575316,5.120517838635366,-4.492059014356904,5.698742297652384,11.836307394138004,1.2835143008053809,4.014805777443798,10.052509688671446,-0.5460524314673544,0.10888548616598569,0.09235660393073608,0.24055228081185656,15.656263133557639,27.64709143802957,45.03955223521146,3.6800777339204296,0.1121813652743959,-0.1857440248774037,0.18470092874227337
300.86000000070845,soft,3.611518057594722,0.6522202749706499,1.6876881179763212,-1.161117895611546,4.498014932903502,5.377870884009453,-4.421676590108201,6.50040501123841,11.611853664044753,1.276875108205572,3.065740466217759,9.777707997942345,-0.49530486174753835,0.11719240908764558,0.08027919917852462,0.24001579196037726,14.331433137285867,0.0,28.60692930444207,4.128920117390906,0.12103127184129797,-0.18075864288606136,0.18663199443571907
300.88000000070855,soft,3.3704995961592155,-0.2177631442276024,1.2100792891679006,-1.1643860242463984,5.442213743902926,5.6068813866788085,-4.3387555763327015,7.333345560631735,11.393115871155317,1.3008013210923723,2.0583103889007432,9.54314667542067,-0.44471233261961046,0.13444422225860359,0.06444535754530008,0.23951134386491893,13.810155020716621,0.0,29.15850156873737,3.7641389038742163,0.12972213571232277,-0.1765146252607112,0.1881191821341382
300.90000000070864,soft,3.0642668580388035,-1.0983404618512511,0.8357536156219723,-1.1673989505876625,6.416813347013569,5.801142501312846,-4.229154432196537,8.182576349608727,11.158411475949794,1.367723834948181,0.9876078435041152,9.354820123463005,-0.3942880531742484,0.14794530522773514,0.08412842516069571,0.239034880677032,13.83577671459806,0.0,29.563634226086553,3.35609212425593,0.13832250089399484,-0.17294881812745833,0.18916574157833807
300.92000000070874,soft,2.714987194552801,-2.0016286653121007,0.552877350192735,-1.1807853089365958,7.402992732281136,5.928235446307827,-4.104064685418017,9.009347987741386,10.941847263086503,1.4719947129685713,-0.1707997798911849,9.219358279024137,-0.36082124204312305,0.1571233475118837,0.11241545697778144,0.23859137400276517,13.738536762197059,0.0,29.90132037811406,2.9674320976824737,0.14687654476001086,-0.17006470984200647,0.18975068024838979
300.94000000070884,soft,2.307234425902642,-2.8521337692702824,0.3840304097536737,-1.2382381879545907,8.423089297110312,6.000595944145218,-4.001528751771511,9.86192316113658,10.682897892803211,1.5657217093584028,-1.365126563433768,9.108597198501803,-0.3164341245478239,0.10583533809557752,0.160451355700389,0.23819419112521306,15.189296924507538,0.0,29.309604699567185,2.3937188659365396,0.1553277612124899,-0.1678370688408596,0.18986454720907042
300.96000000070893,soft,1.9026872090428117,-3.629503543277982,0.29899396905930553,-1.2985723797872266,9.447219046786085,6.059813580305154,-3.8413500017299333,10.692664876982338,10.387875138815435,1.7518200483777144,-2.5981931265990963,9.040354680324494,-0.25781813691863453,0.052609418244562334,0.22618708752598754,0.23786428809950633,16.82592531939372,0.0,28.64932316768124,1.7041900546500548,0.1638120522653096,-0.1662237078296892,0.1894386776833725
300.980000000709,soft,1.473271359658324,-4.346477010677916,0.2677008968124427,-1.4278991999407118,10.458066813156014,6.126596598590379,-3.6587739336837104,11.468935821238361,10.080494913684285,2.0179994615526824,-3.833269401190864,8.996250049682153,-0.22017800340008944,-0.005776827590083027,0.29298385837807267,0.23762823695589194,18.43475789958731,0.0,28.130442069849234,1.0179631043476627,0.17250283485453802,-0.16519580407290602,0.18827649859625326
301.0000000007091,soft,1.0100070310482518,-4.9897593016998565,0.2641404842681088,-1.6459094851959704,11.323097787817737,6.359636585527098,-3.4699634811675,12.176795709345145,9.767241702333573,2.3606415055225525,-5.031295621861556,8.960407363881334,-0.29705571215279364,-0.0276375126978692,0.43661130519383284,0.23751746098209453,19.77162970080276,0.0,29.276432742774993,0.4605395647407929,0.18144845553312822,-0.16475114718564438,0.18612124748492861
301.0200000007092,soft,1.3198709647481588,-1.7393763652741412,-3.797384298640507,-1.432091210067942,11.40531713921083,0.6180341266440674,-2.6238537918980533,14.7056101267816,1.4116247496468084,1.7535937975889222,-2.3869596286056733,-0.55847317228055,-0.8314984783291354,-0.7307453509903301,-1.8204146018436842,0.2359007879469965,11.811503285425886,7.230547053829975,22.16789075493563,12.551815447043223,0.19366304733400408,-0.1705438888258211,0.18307668096100932
301.0400000007093,soft,1.0341320531609925,-1.169550271724413,-3.8422526277463334,-1.9987590627543823,12.415913339502287,2.2401738200515915,-2.8115299922761823,15.482967002043056,2.654137954983179,1.949711216729261,-4.542078204664163,1.753015403855679,-0.7811590192670217,0.042952542208726366,-0.6837862670298117,0.2334243814605205,8.571073558425004,27.90415278467232,11.850517519636227,28.110451787100057,0.20681801371595585,-0.1774370772727974,0.17920616471522557
301.0600000007094,soft,1.3956381526351482,-1.2085977810698578,-3.37568442354166,-2.924755394633194,13.600402877982145,3.4795064019537243,-3.0801370160997643,16.102042257135302,3.8418242953469566,2.2577691242253874,-5.921704737743001,3.4528879920824433,-0.5783837638434435,0.3167960406597231,0.17048853023105442,0.2306943564044609,7.589308576600892,32.68869654305265,11.466573673567119,30.983630875266766,0.2183003924342194,-0.18356588515374844,0.1735694848272016
301.0800000007095,soft,1.454060436753358,-1.5865597964579523,-2.935331958073183,-3.7065660345288127,14.699968006386051,4.412602234122993,-3.1333891681193657,16.56703422379724,4.858408231534678,2.771011672131954,-6.958322312439177,4.9570763609135575,-0.30274525485196396,0.4228568576669908,0.7644524297039973,0.22803976809583015,6.261303116987975,35.83167586367721,10.882080862191101,33.159954487294804,0.22835578781806692,-0.18895934745584514,0.16606915745527354
301.1000000007096,soft,1.4875951130987355,-1.9396483327709602,-2.5088378853605953,-4.392582012228226,15.560816679435316,5.153241023713791,-3.1278442514499507,16.84110510780704,5.7705996472849215,3.2657084617863,-7.812180332689575,6.378527668153669,-0.015438321768196752,0.45178967430872125,1.1197145337628582,0.22569188709041269,4.203376322641909,39.124800301271904,7.09436386832427,37.750296573250424,0.2371094967998784,-0.19388629466860835,0.15698868642255417
301.1200000007097,soft,1.4828043290072797,-2.2454692108063554,-2.084717005094337,-5.02436482225186,15.97565914854145,5.885679979403207,-3.1215728300224193,17.015696015062986,6.424735264224141,3.624527852270271,-8.613702676153135,7.696253113963337,0.13217254844891932,0.6194155006212796,1.6017243361860853,0.22380019525741204,2.9053990763906903,42.53900226485833,43.754245821604975,7.233682259116382,0.2442624864810714,-0.19889251293685106,0.1466737275650181
301.1400000007098,soft,1.4810925274466238,-2.5016229191009964,-1.6718308895695735,-5.604649215305367,16.247685879114258,6.540891150867823,-3.145647633036346,17.162142835003397,6.914543823142296,3.9697193499964407,-9.660312177851262,8.257219074015996,0.30814488633416826,0.8060479803017565,1.8713950653175742,0.22254853162033786,46.83201064790284,43.2428025975559,11.00184620032722,3.4334550751428368,0.2491895453647407,-0.20381227646730024,0.13540199494758243
301.1600000007099,soft,1.4833733861079261,-2.7166177579583124,-1.2794538019519517,-6.106851344529415,16.398478238875935,7.0940077228932,-3.139055733086219,17.17375206579069,7.385226061374508,4.3170982981946935,-10.50900023237103,8.592442766627055,0.37242851190897464,0.7183090927684276,1.8766966549764668,0.22202482854069314,48.4581051444904,42.936657587147955,0.0,16.622510840225218,0.25185869924198956,-0.208375987174995,0.12332745375669311
301.18000000071,soft,1.4832476140008028,-2.895920432553374,-0.9057630408236523,-6.534652426249472,16.41116798928038,7.5795716338944965,-3.1204572055622797,17.051229584706547,7.836993500514624,4.627031684559141,-11.122028078444531,8.82359412366447,0.46478589903891365,0.7171384429762027,1.8825883202022946,0.22223965120119,49.59612736505805,42.839005022468974,0.0,20.703952817884257,0.2524410606587193,-0.21255703694419464,0.11064092590299827
301.2000000007101,soft,1.4826849671342135,-3.039799658993159,-0.5214351528424594,-6.883299351127258,16.31085667525192,7.979686599210433,-3.0846876043710116,16.813584593047594,8.25921878475453,4.891385009788921,-11.506442740492533,9.02914437113785,0.5107829373990693,0.6902390562771922,1.7901553880171412,0.2231926962465475,50.197669378596814,42.76045153017956,1.6677013257250377,22.716664656521743,0.25107451364669814,-0.2163187699118475,0.09750210877588487
301.2200000007102,soft,1.4811938243560168,-3.14677417101953,0.08043740351667997,-7.14639341197503,16.107032923881192,8.304787565071413,-3.0256066023518833,16.482298509964316,8.650048190671377,5.106813711373597,-11.734730080013733,9.240872612278856,0.6209985265397506,0.640805456057309,1.5965892236962858,0.2248475777491339,50.27111245348143,42.65512505872313,4.425481057683249,22.115086570402184,0.247940279895636,-0.21965325970712377,0.0840873350766067
301.24000000071027,soft,1.459432304197555,-3.217325607845102,0.4092216450263999,-7.343440822614594,15.82833108164104,8.562106195664516,-2.951464990332959,16.08976719786498,8.990722564323695,5.257225253140126,-11.824399772244258,9.513043929199991,0.6024458247931367,0.6195684857952574,1.4668539763722699,0.2271381767295499,49.99676091025886,42.45805809186237,4.8332947754275235,22.007981515515894,0.243282518279394,-0.222573525835654,0.07059351586707008
301.26000000071036,soft,1.4447055939790612,-3.260304783727669,0.7110732182624482,-7.497045869011433,15.502997888806043,8.776664338273871,-2.8595806484381665,15.658120542233764,9.28902728030739,5.376619634716777,-11.784313712006327,9.703702124974216,0.5557104830697299,0.5688800361653394,1.2296609292286664,0.2299898996190336,49.49115411570245,42.20992940298798,5.4483593510048856,21.179341896028557,0.23725771280000194,-0.2250192458681343,0.057092451617829186
301.28000000071046,soft,1.4276508817031897,-3.277925403220019,0.9895021371093793,-7.61693631204402,15.136954151018244,8.950587460392029,-2.760788160538496,15.194360477669589,9.5421451966915,5.4565433646948405,-11.607651951259657,9.897510472571376,0.5508384218723141,0.5498247876813361,1.0260113534781743,0.23331784806388606,48.81441507144142,41.91381594163766,5.646302510171044,20.4385752698754,0.2300159771395096,-0.2269755361926998,0.04364163958500611
301.30000000071055,soft,1.4101161256804449,-3.2705094867153397,1.2436039728162784,-7.702835088490648,14.736600874528825,9.083486421657186,-2.6538458893301864,14.70228124419868,9.756907192871457,5.508385465480317,-11.325669766166747,10.10784668409389,0.5272435752944128,0.5303418275766509,0.8071974032081416,0.23704105212904786,47.99132003923056,41.62654820728468,5.501277220192403,19.541021607535793,0.2216826365499318,-0.22842197325564387,0.03029690675095846
301.32000000071065,soft,1.3864037597996912,-3.2382702587553265,1.4758131491893538,-7.7446954545514455,14.240537288236943,9.303765615414983,-2.539618589200082,14.203250487716078,9.932789666441531,5.539713400029933,-10.945551291346721,10.32505973925505,0.49101429155991977,0.5066892062522943,0.5398660989488906,0.24106992827980367,46.6597901740748,41.342152360896954,5.049336722653131,18.4844028217428,0.21238549295692596,-0.22934057938664534,0.01710282611077932
301.34000000071075,soft,1.3628459514217512,-3.1936809605925394,1.6810673997511225,-7.78995512995403,13.760267639788157,9.471356403699577,-2.432464148533553,13.670670044042614,10.117799722406783,5.5609921665110775,-10.5042923449657,10.549163582127903,0.4438584626670538,0.6488556408248568,0.27605467459561395,0.24530152540157737,45.808939228776,40.63515765320386,19.493788105623878,4.420493658082491,0.20222487967634245,-0.22969714285117837,0.004070188985994732
301.36000000071084,soft,1.3560529894983837,-3.1283250574775145,1.858010321444553,-7.825152588450028,13.288743113487413,9.50518538391151,-2.3140444822835065,13.01677933731456,10.414188359295697,5.636843918108388,-9.894239420845246,10.690442919671929,0.4253607674298287,0.437828357661747,-0.12556110720494523,0.249626584372707,44.714702243775385,40.86582728347741,20.077299328078094,41.141145844881905,0.1911932242519133,-0.22969807373388762,-0.008894597321110075
301.38000000071094,soft,1.364131584545103,-3.0563070867647806,2.015589346956796,-7.348562957225539,12.474108300712736,9.18480601429552,-2.2051971477220977,12.28667517494885,10.753088413104656,5.529164916425295,-9.458582667037778,8.659225536974347,0.9648708722273288,-0.08240916881210784,-1.1149543242106192,0.2538460494994835,40.45172420895983,42.50903630238552,25.475540952367155,23.456146869446467,0.1799583567602232,-0.22980825093617893,-0.021219396076633656
301.40000000071103,soft,1.404251757326688,-3.01802915438118,2.0779676305222576,-6.004648480539948,11.150702090943179,8.343532565972838,-1.810683067179164,11.280776815838493,11.347946985160979,4.343183553682414,-6.436408728922061,8.246898792300309,0.9022670047538401,-1.045669516995892,-3.075960521720997,0.25752981820513565,32.01477444348838,49.625980653873455,22.764041319634654,0.0,0.17020486624061668,-0.2304582143929746,-0.03188850578906212
301.4200000007111,soft,1.2319003445214847,-2.8088630426712182,2.298744787162078,-5.027974629397033,10.061848635349577,7.698469830534484,-1.5214518644458577,10.415805071089142,11.827897137873142,4.082600448020253,-7.035758994018888,7.292653150600749,0.7265582382591854,-1.1533490928243386,-2.493251132454119,0.26019806020562575,28.17334851542719,51.51490374450636,16.177894914182286,16.106764280222045,0.16466397196380958,-0.23258378720320264,-0.04054914162126293
301.4400000007112,soft,1.1386768842460955,-2.6525793915297635,2.40941541578096,-4.96053559359841,9.709571116600017,7.986539307908096,-1.458965351476097,10.202694692561696,11.898141650313264,3.8654592454809604,-7.169501368710687,8.042429921648566,0.3197635707021036,-0.7934610467984413,-1.9415063062929274,0.26189649764135026,31.827016443125984,50.06683340129488,15.045875864681026,23.085493251865927,0.16118624116920205,-0.23341790975491908,-0.04778187948593571
301.4600000007113,soft,1.1611330350378513,-2.520187354281725,2.459337059314562,-5.27284854793385,9.460435622178615,8.661088715852532,-1.4491105034659508,10.071972124943631,11.813474874581713,3.7540456055926223,-6.711008731875687,9.62828447267891,-0.08613266892050232,-0.3778399355371957,-1.1234934588263399,0.26286111222058545,38.33615795894078,49.00789835809625,10.781276653038075,34.0555787579255,0.15859227176409812,-0.2324830500376577,-0.054406889127230566
301.4800000007114,soft,1.200048403473162,-2.3872627492361893,2.489040533662992,-5.635147766349596,9.376123811653901,8.97686464087751,-1.4002942554881912,9.884442973197206,11.659198294392828,3.7612276479690876,-6.0418412942398145,11.019567180823667,-0.2427281935871494,-0.10157427502297127,-0.7406919017799669,0.2633839199673718,40.78565162545383,47.84094661799568,6.746466174176539,42.45024715955763,0.1560794219307586,-0.23018586950971637,-0.060988240040255
301.5000000007115,soft,1.2453935326369918,-2.2411824695184084,2.503120123438446,-5.9440516861407415,9.34234490017049,9.077346606001415,-1.2754987130640858,9.631752792785637,11.480166426808907,3.8587297703874195,-5.391490177596842,12.09123903325629,-0.3001234485558567,0.10436199596357883,-0.5548856474247202,0.26361439957896154,41.77348478170038,46.689203301603314,3.7455580930187153,48.497925441617596,0.15343715153827084,-0.22691163733513714,-0.067782302378643
301.5200000007116,soft,1.2494320516032338,-2.0847404169001944,2.507362690071064,-6.188397499989003,9.311073696646135,9.06475228984072,-1.106238573635459,9.352644373325216,11.278307753750042,3.992055484386839,-4.792132954490674,12.941332488425822,-0.31941846461628637,0.22466866170903937,-0.4695880922453041,0.2636241048651422,41.746398719837295,45.695292591609515,1.4609600638499827,52.973087473661074,0.1507531259381389,-0.2229001379109076,-0.07476898281444948
301.5400000007117,soft,1.2507075539310062,-1.920018971674689,2.495449401359574,-6.464466706580066,9.26461236702334,8.99890491566266,-0.9681949255503298,9.034966668661555,11.078176044590666,4.079210101837399,-4.231957147009375,13.594994916466103,-0.31972778210720587,0.3262700878960652,-0.4147430374449973,0.2634463892524533,41.549926624309045,44.978928206498246,0.0,56.09403374056243,0.14769961361818795,-0.21825943250997354,-0.08196788059904872
301.5600000007118,soft,1.248861525522073,-1.7434576174703995,2.4703377422670245,-6.738617560056908,9.200817131826607,8.928242583159136,-0.8332751299034633,8.735034418698666,10.836577150342537,4.151394246488314,-3.786089267712743,14.037113313118057,-0.2859240405267577,0.43964215129221784,-0.3535559020225922,0.26310541118056574,41.518742148519664,44.045842440650915,0.0,57.90262909497232,0.14412767319972772,-0.21296811524665046,-0.08937083166112912
301.5800000007119,soft,1.2467304789250755,-1.5652219540207462,2.4286657147747004,-7.006523677384395,9.095297366118007,8.850422497607951,-0.7177951303544616,8.427080385806098,10.579684824577505,4.202977426118723,-3.3470121028898747,14.332824803218887,-0.2456560380858815,0.5252286917627262,-0.32387098247120016,0.26262306342358727,41.729386835884895,43.20619696541201,0.0,58.984912148089684,0.13987737188949967,-0.20696771097106345,-0.09692017700124615
301.600000000712,soft,1.2519350446977837,-1.3865766427892523,2.367726444096677,-7.259434194761656,8.961330057196314,8.679291214099413,-0.6416302541247669,8.082957192069724,10.321130070939017,4.221825839548655,-2.914661196432201,14.530480134780621,-0.21906176355206433,0.6072513253942274,-0.2502947174026334,0.26201739889481124,42.8325186287794,42.600383199083865,0.0,59.67857154117642,0.13475515492980167,-0.20032776616402365,-0.10449606303004248
301.6200000007121,soft,1.2503490285273409,-1.1992466449693886,2.2986736835019395,-7.464404292660679,8.782836203783186,8.445951094535548,-0.5805064234312434,7.718992258842939,10.050854849964809,4.237479836266823,-2.4666215411568606,14.649416281324974,-0.17127895881303704,0.6693052055425885,-0.2716278667079857,0.26130980873489973,42.79848098840136,42.060457721006706,0.0,60.05500259908307,0.128681780269369,-0.19316884184951144,-0.11192886218723318
301.6400000007122,soft,1.2468157787002465,-1.0045409704133905,2.2198925534638194,-7.610679384434311,8.509792856539054,8.27285619218805,-0.531318360920132,7.383188553178353,9.742829355067453,4.254345740437336,-1.9691359033331777,14.696024264146153,-0.11564949308503275,0.6843747564108503,-0.24514096234183957,0.2604976113824824,42.87070056079933,42.382597568536276,0.0,60.10592075051385,0.12166683432341154,-0.18545478602985188,-0.11904613000690757
301.6600000007123,soft,1.2439955224085402,-0.8151053667571269,2.129404716193875,-7.7023645001025125,8.173104632875981,8.091653856857016,-0.4996299144625458,7.065983303030766,9.381898531245307,4.27186894296253,-1.4455860861691407,14.687987681335322,-0.041880951810062614,0.7317376826235003,-0.26653071090183905,0.2595871205825416,42.97234626010065,42.155466995003536,0.0,60.0475338156809,0.11374985281793486,-0.1771332649655374,-0.12565415208613237
301.68000000071237,soft,1.240736093771502,-0.6251456876870423,2.0318981030341483,-7.75753146348649,7.769202014746215,7.888058640792356,-0.49208006224272915,6.683423351207441,9.06807821108969,4.291422182032076,-0.9083101740561776,14.653166318090223,0.009566622024560963,0.8019803926877839,-0.3041623054906172,0.2585699494575836,43.06922149441893,41.646833269914715,0.0,60.0010212255357,0.10490425775173125,-0.16826652257707522,-0.13162045556975038
301.70000000071246,soft,1.2372592149306556,-0.43041756454220903,1.9294304017591255,-7.772020577601772,7.311140971502872,7.680273827358743,-0.5082550904410013,6.265474376411,8.79316454051408,4.316195171369032,-0.32904069149820003,14.5699764646509,0.07440573899931825,0.8488118257638498,-0.3107134122884349,0.25743279379535194,43.22339126380141,2.139762533856031,39.5970604150468,0.0,0.09507832027031031,-0.15886605909703735,-0.13683079868727785
301.72000000071256,soft,1.236989844599272,-0.08731620319976108,2.1270691130324195,-7.736626185461986,6.799320340336429,7.431734463621637,-0.5453900789408062,5.792810090737939,8.555377753780313,4.34959493312327,0.2737975920160092,14.440077778954013,0.03586148095486492,0.7950622847635611,-0.16630455489404014,0.25617826130147975,2.886833744509794,42.90023069171889,3.0106162885142336,39.21187430137054,0.08426800725022177,-0.1489160760987325,-0.141166798819289
301.74000000071266,soft,1.2530732648075327,0.31501221118233214,3.240614061783976,-7.584712175599661,6.259796783913927,6.867905965081758,-0.5069254353841423,5.136580930775855,8.296308457026077,4.441557119154137,0.8035382239454174,14.271705068525133,-0.4600452751919951,0.4510034098175666,0.3678483175425458,0.2548920220206646,14.345742918982433,39.663915083860836,3.42380077617688,39.628040868951594,0.07274927057907361,-0.13901111428399682,-0.1446812761974018
301.76000000071275,soft,1.254825260782322,0.8186823028751615,4.1138365514773785,-7.321114847969491,5.64573494055465,6.109418605826811,-0.47039681113397014,4.433595467956542,7.925938982637703,4.493482560783898,1.365667980527625,13.981982793367761,-0.8013205463527746,0.20261684376794115,0.5522423122656942,0.25375256906568067,21.844969920583118,35.178079569038886,3.569170893590842,39.536412835663725,0.06106539907827755,-0.13014560343411097,-0.14753873125336353
301.78000000071285,soft,1.2403533503410993,1.494950395332882,4.611976246249196,-6.998024932310006,4.873938170611307,5.425894656093259,-0.4919599155324942,3.7160289688452233,7.517420332713287,4.48185110802299,2.0066973598630526,13.677178411646407,-0.8327108192615045,0.11585744504571947,0.5033132368856754,0.25282929604790544,24.99835997392186,32.15975572097722,3.6559849422823847,39.40968713864819,0.04921709330194807,-0.12256878687876845,-0.14980905082847082
301.80000000071294,soft,1.2326608329499904,2.2568285112195925,4.947555422353777,-6.670057796960351,4.053108741006719,4.754915905089857,-0.527108556194044,2.919212646820757,7.150326592343011,4.451898455252301,2.6902104880684115,13.371110954508865,-0.808461036138079,0.04019678746655511,0.3767450320529092,0.2521027432214754,26.71772252868042,29.360155225111853,3.8646522177255704,39.7055182877631,0.0372765114666818,-0.11630891149840288,-0.15156187666585005
301.82000000071304,soft,1.2338975658326508,3.0888187270364154,5.2240302363444435,-6.36797088249422,3.2166630450655957,4.112659095424108,-0.5750225727810054,2.068581594443217,6.818221063499823,4.4085172316849945,3.428316663243915,13.065415514122428,-0.7484149524622016,-0.025667936055749106,0.24976516022075645,0.25152294023973154,27.826211274513334,26.893505892874696,4.120708522728882,40.295485276153855,0.025324626794395805,-0.11124790033415287,-0.15284780925094066
301.84000000071313,soft,1.2558935010886179,3.975284651466107,5.472820852340965,-6.091575143982109,2.3667669347777376,3.5092467973514347,-0.6110864535912074,1.1644247592409005,6.518170057362835,4.375621981603801,4.219099972214235,12.770007557259744,-0.6738800230132058,-0.0891027063581093,0.14465902208904205,0.25103999006035516,28.600910054524743,24.830450243239376,4.420919597821676,41.143511060497396,0.013497005061524354,-0.1072265799875085,-0.15371866439450854
301.8600000007132,soft,1.3051716036437,4.907838990334493,5.705925192129477,-5.8363571924142414,1.4930617443223548,2.951460450287246,-0.6330317129912046,0.2137742331828587,6.24185415870776,4.357933148464716,5.054199797409583,12.487856789502224,-0.5942585813989963,-0.14151378158598965,0.0734583939767894,0.25061327880385925,0.0,29.13097199401186,23.24995188144274,4.738439444687548,0.0019402319723025273,-0.10408905144519863,-0.15422200109965017
301.8800000007133,soft,1.3870744609854966,5.880848639561022,5.931096176568456,-5.588997401576449,0.5801470763320299,2.4474340975354987,-0.6523875121948712,-0.7749113208939464,5.984737646810973,4.350578202204224,5.921578263896231,12.217780264538511,-0.5197642914287475,-0.18247082829099864,0.02821086677748169,0.25021508643013046,0.0,29.493485070029173,22.156159650800127,5.065335574719428,-0.009218866047303933,-0.10169599883598032,-0.1543618143750422
301.9000000007134,soft,1.486545442446021,6.885864790119739,6.142291033991639,-5.326653728897825,-0.3862812549083965,2.022863031528157,-0.680448987314953,-1.805026123543801,5.750302664103009,4.341721933604252,6.816188979148675,11.951682702891274,-0.46139053605861474,-0.221070861013853,0.035941549300852214,0.2498291305398651,0.0,30.007977782133302,21.640263544352177,5.427039816605268,-0.019932821941199042,-0.09992838019989057,-0.15414100361325406
301.9200000007135,soft,1.5570689988578263,7.914344333325656,6.282516075176651,-5.0412495592361966,-1.3883907150204948,1.6658427914246035,-0.7695002681643267,-2.896503423795998,5.54633094843424,4.280813892349958,7.714786888306302,11.675723148638006,-0.41334036160893123,-0.23692373332918987,0.08287513757357286,0.24946054380138125,0.0,30.28294020639377,21.915622444858986,5.836638511486139,-0.03029126426602217,-0.09875604416099934,-0.15356748810199336
301.9400000007136,soft,1.617982227613404,8.959995445153215,6.382287174334433,-4.706401215344353,-2.390395464485244,1.3908646194101668,-0.9192228195798446,-4.026798007212039,5.365400811843554,4.177502619280358,8.615548749355613,11.381685561117445,-0.3482131517923124,-0.21723497404178732,0.12270744035575604,0.2491274505063204,0.0,30.044646722370796,22.506478092869983,6.2013489189036655,-0.04047100129710009,-0.09816174268001007,-0.15261670003843564
301.9600000007137,soft,1.7100401762934139,10.000408847817681,6.494631909705204,-4.322651416782061,-3.409522660927737,1.1986205011146611,-1.120244659160437,-5.179269166260323,5.204439704492708,4.05837843040598,9.49191727460506,11.109687623760077,-0.30263624741045264,-0.1945173836926589,0.15364188614893914,0.2488426571023214,0.0,29.65518160762612,23.11971464702577,6.588426377991603,-0.05054830308438549,-0.09810036532297613,-0.1512009006026595
301.9800000007138,soft,1.8322520676220129,10.968028413957883,6.716104635246007,-3.8736016198392234,-4.369143026802461,1.0754797041455013,-1.3929967090818465,-6.327483349643847,5.1048871867020775,3.91461621151692,10.35924510400134,10.793550762211208,-0.3195390855698153,-0.18338118856078797,0.29085171581658453,0.24862687696517558,0.0,30.22266371814597,24.543058396041193,4.811621246241927,-0.060588682901998585,-0.09849375064230206,-0.14916166240654607
302.0000000007139,soft,1.959409023526503,11.744411012754307,7.022766255382188,-3.329322400257977,-5.2248685020008425,1.0128969993871841,-1.714405625647231,-7.49542569543161,5.042155251304541,3.764903288888951,11.170457761022993,10.459874429045499,-0.3660839097472104,-0.2098422048918922,0.4292228457535095,0.2485340201980264,0.0,31.828374722456754,25.581646252899695,5.071986330655005,-0.07053187564533082,-0.09945122370254081,-0.1463359885953422
302.020000000714,soft,1.604799033256835,11.87323778246964,1.064598992836574,-2.5000106197054457,-2.1225709222926743,-3.3352529919772866,-1.3583457460753425,-3.9912263175261824,-2.332887935188783,2.6412923490314903,13.768154584537537,1.5842262960091453,-0.9798704739634065,0.28454511455803233,-1.3560847377076544,0.24690565039011916,5.919046273156018,24.053082685211738,18.591911943043495,7.252023084453565,-0.0823110627227819,-0.10602345373481682,-0.14258327432549964
302.0400000007141,soft,1.9400382120486692,13.04642951671099,2.430235797544988,-2.136827132686655,-3.7566722237808,-2.552188224463846,-1.726483995298873,-6.0816064082030366,-0.6578752951493776,2.6151724844886584,14.716718237480034,2.647165281779616,-1.1582724352545832,0.08356452949862632,0.07218310572095411,0.24463520640596473,4.856423495935775,28.501656238420296,24.45088590459397,10.505729809686141,-0.09468059463429847,-0.11324299800478616,-0.13811739645109486
302.0600000007142,soft,2.3079484337934324,14.205139819080102,3.412418218941159,-1.5836554419916227,-4.882819965732653,-1.8844484134596868,-2.2783939333394185,-7.789837384678071,0.5161365406532354,2.4696843667090924,15.534402346811067,3.4388465623322713,-1.1069908019478225,0.046377159787468134,0.6444941758920467,0.24239384320724489,2.2581318489084903,32.314017607730406,27.35409490117932,12.716110630203389,-0.10696894971861946,-0.12000404184440476,-0.13239299654104553
302.0800000007143,soft,2.727906068008299,14.97027568593019,4.568461993574946,-0.8205582858148261,-4.1611266858036995,-2.0950458961044234,-2.8132803013819547,-9.130734151256188,1.6793857151603788,2.433337658299591,16.044606054608305,4.414700204443758,-0.5752077779349161,-0.6065293943843857,0.4305180802256938,0.24037140317509215,2.9968348033793593,35.814625476975,10.626109629438425,11.890107115573391,-0.11883773608183969,-0.12670708093310087,-0.1252409088372602
302.1000000007144,soft,3.556736424571519,15.546930874578354,5.646571975385864,-1.4094218412952548,-2.356370494107855,-2.209304678151013,-3.0371413191643257,-10.081772301456038,2.9519642560628157,2.793693773478237,16.208024604688525,5.7960415149478735,-0.04611311354283138,-0.8833979062154059,0.5470860533135776,0.23853709902401202,3.0836329949774814,39.872403686577975,7.801409000868792,57.79634561933442,-0.12843696875125063,-0.1334126296443785,-0.11656982104934815
302.12000000071447,soft,4.211058188689179,16.032341909629224,6.545284668880365,-1.6819767757508661,-2.4109058915619563,-1.822770989622982,-3.336900145314358,-10.813063131370113,3.903209311971631,2.9840343092723987,16.3696803075324,6.97451813425624,-0.10619771220976885,-0.8145254028555258,0.8805491617190219,0.23692631597093314,45.19953819138931,66.22093470375529,11.528781965519263,37.103263242541516,-0.1350412707267786,-0.1402218829866593,-0.10647074855207031
302.14000000071456,soft,4.638713615962359,16.306111791596773,7.273910566387119,-1.6954217219409389,-2.634584212556944,-1.4533467625207894,-3.6855714134594586,-11.047701107775929,5.107936963777467,3.034653605152164,16.48730435884526,7.915264291863075,-0.053385324349621,-0.7690456590726599,1.2267372117624227,0.23566944463395542,47.09862085037964,67.58324792042762,11.956771783793348,38.90322847912387,-0.13971074604476455,-0.14720871628100066,-0.09531430590459271
302.16000000071466,soft,4.972717613469879,16.328051196186863,7.797502435878162,-1.6820291351587155,-2.8364624521301813,-1.094269118290567,-3.9503503433041818,-11.118960291271364,6.290633003404176,3.069116487030924,16.518853072627497,8.646688951254792,-0.050378595464085026,-0.802494957394733,1.3052514673600872,0.2348894600402701,47.89501866403945,68.62700325777672,50.403130898984244,0.0,-0.14252137950804006,-0.15476261522720292,-0.08338677491325952
302.18000000071476,soft,5.253868515080323,16.149012673160385,8.16675103431566,-1.6628152012299822,-2.998799478145214,-0.748009478138093,-4.188352585100325,-11.010999457007358,7.4147796626420135,3.0787015872038324,16.41958330849397,9.261115800517416,-0.051522248938601765,-0.7879213825401316,1.3637638077000687,0.23462559170753977,47.96811246175625,68.89445829527813,51.20779197105092,0.0,-0.14334743474370518,-0.1633001743585527,-0.07083521983722851
302.20000000071485,soft,5.472291968971134,15.852163142815652,8.431867490765597,-1.6477679656429025,-3.1314641496837705,-0.20663419854261958,-4.403952035652223,-10.717232438689102,8.410089231003003,3.0734712750571473,16.20066319388456,9.852208911580787,-0.06895721574754449,-0.7280137736654442,1.322179888219187,0.234893957291294,47.50198088030199,68.17718794343033,52.201422377809884,0.0,-0.14228362298243252,-0.1728791516713374,-0.05769253308962832
302.22000000071495,soft,5.615302969115146,15.466703545335047,8.60639292515599,-1.6171977584491581,-3.2115260374642354,0.2026212909718088,-4.586466323170649,-10.30638478012063,9.291722524865671,3.0499440742776516,15.899640756882565,10.398653353777421,-0.09605318417039146,-0.6360732944477547,1.235553324408889,0.23567965228546933,46.547029282577085,66.9316294534855,53.209106784576264,0.0,-0.13951576569318744,-0.18345639235316108,-0.0440816324878224
302.24000000071504,soft,5.699780968293659,15.024493850385806,8.714878626066596,-1.5889927871641076,-3.2724451202555365,0.5093814898973081,-4.725398419009741,-9.813800235515313,10.058849870244176,3.0187600221473057,15.548082393923401,10.891420478315295,-0.129879955241983,-0.5444709931339334,1.0919450569204572,0.23694446785673606,45.29399328650003,65.33119092407487,54.155876385600024,0.0,-0.13525853920239272,-0.19494205914226045,-0.030132629059719397
302.26000000071514,soft,5.73614928842217,14.552193152512737,8.77414342166998,-1.5590821795858736,-3.3065686682651645,0.7952344759643397,-4.827003082410725,-9.271047494115011,10.718408620322261,2.979626175548285,15.164925023540281,11.329918294375439,-0.15935401614574615,-0.4499909898370634,0.9085358047609674,0.23863091179414667,43.8536279364323,63.3841114133416,55.03154522606522,0.0,-0.1297298358603528,-0.2072001652583596,-0.015961716518184215
302.28000000071523,soft,5.588021063307551,13.934912964496469,8.66615746078271,-1.5122825362648047,-3.315802209857159,1.0651000411101244,-4.872165320859458,-8.633140556762264,11.44798936979365,2.934780833314363,14.744823098122804,11.741363988821504,-0.1426701068492309,-0.2807506921233638,0.4875693031163923,0.2406511377691603,40.05775260995934,60.4527124716205,56.022710242019116,0.0,-0.12323563399931099,-0.22014981801022385,-0.0017227667875667457
302.30000000071533,soft,4.392243372136333,11.967269665435627,7.4456963103385725,-1.360185365072425,-3.3346143576556297,1.3364071690217258,-4.636985084599682,-7.24878707353005,9.819097600341658,3.0293209577814992,14.301570507631862,12.28476598655748,0.47322229911894304,0.7275765066876496,-1.4418825260232295,0.24275485281924108,27.34982615353787,39.75525157062445,59.09813865335396,0.0,-0.11593931780276105,-0.23319635498662156,0.012712516211830897
302.3200000007154,soft,2.796621480373327,9.344047559267993,5.77936832452791,-1.2825181139859083,-3.2928293090862706,1.5901382641840405,-3.976677792226747,-5.953002391397392,7.468415417522065,2.9202902447175174,13.714467311652252,13.124255783140686,1.3159351252100344,1.2182630487645454,-2.016293417930113,0.24422671380067126,17.47019029020363,17.51789027105715,21.400194136214754,61.84625504116972,-0.11012292850951273,-0.24627015160050902,0.026770046197917067
302.3400000007155,soft,2.58381999016203,8.568924891249285,5.636290910622062,-1.1423800871299101,-3.2050166250011927,1.8317782402915652,-3.7865813822001133,-6.155110997119747,7.034609683592713,2.979274352924512,13.816274221179807,13.38757581511122,1.373688347000833,1.0001307867718157,-1.4819764761268093,0.2448363887962124,17.820114237501873,6.456791835570967,16.534164498116876,1.870931745250222,-0.10662785431962553,-0.25716862812466623,0.03986587846580255
302.3600000007156,soft,3.0357032694622355,8.76007785865725,6.48681709006962,-1.1872192605825238,-3.146555006290164,1.9804954100561165,-3.8479928077050167,-6.190467091534293,8.186505629857379,2.958200490395269,13.927501187375913,13.547609067789264,0.9315655493676944,0.699215581715645,-0.8859319456397169,0.24485812225772186,25.07615181731041,7.002871102198402,12.257129253486257,1.0395345607298074,-0.10471905918903043,-0.2644494253914859,0.052364048748143995
302.3800000007157,soft,3.6394617642982507,8.968452559882653,7.477186797318962,-1.2521383880514083,-3.0625992629771357,2.1013485185783907,-3.910767183463743,-6.191393506318656,9.644244518370893,2.9656739810377726,13.920040943999467,13.646366172547912,0.4374769130272324,0.3586407753838535,-0.2676706980492881,0.24454824233453165,32.072999680256785,5.960562717931481,8.204882302230684,1.2772937131687236,-0.10381599156450719,-0.26915841651396816,0.06448272949342229
302.4000000007158,soft,4.15352751001016,9.269841944444504,8.031831289525776,-1.2879549859099453,-2.9782252278271244,2.212442793065658,-4.03340144208468,-6.094553527873854,10.805327476303123,2.8634393688899227,13.808501483334396,13.680683800870485,0.3937258904743388,0.038988835886652584,0.02132433897523647,0.2441324867936428,34.796005328937184,4.09776164304528,2.437967613261018,4.1965135871316095,-0.10353433775822228,-0.27216698544720125,0.0764162843295744
302.4200000007159,soft,4.645009353179845,9.568269999716744,8.383820920620494,-1.3028207811075128,-2.8723856468237186,2.3084554484851942,-4.185712495715176,-5.86358390698741,11.722798949750334,2.701128598955082,13.57873167709608,13.695058540649914,0.3332217349393408,-0.0950393570949518,0.21424175007742632,0.24373062280432964,36.07203048814963,6.849064234974792,3.2764553396177156,1.258041821380846,-0.10355190697609812,-0.27388044815097723,0.08844682654070105
302.440000000716,soft,5.102833904538037,9.818587011010596,8.618311224385346,-1.307202273300958,-2.756534732228559,2.385475429051821,-4.339088158896864,-5.499345408742952,12.456087835432449,2.5056769325492487,13.283023041322975,13.641526960116103,0.318386292416936,-0.18878175429291166,0.31415358412524813,0.24341398181305557,36.754906292005636,7.643884920927127,2.799695747701251,0.0,-0.10371543542314537,-0.27448645069756633,0.10070764756014881
302.4600000007161,soft,5.511521784277156,9.94441733345587,8.797962033753048,-1.3102395160884979,-2.629224028690291,2.441865983329887,-4.46525731665596,-5.05745636684127,13.053259005053503,2.310467808737781,12.918425345091338,13.537686824537309,0.2788668369750659,-0.25839567123546303,0.3771617403123147,0.24322249560018522,37.6895601441957,7.505638655181525,2.043264076281454,0.0,-0.10381569787110764,-0.2741885180866762,0.1132321699051405
302.4800000007162,soft,5.85593420786281,9.92829651959692,8.923225879745887,-1.3169592360708338,-2.490042034003075,2.477939661706433,-4.5496330037434545,-4.572677276504181,13.538016752734043,2.132564381271807,12.497177391052638,13.386275423044257,0.2124303240010832,-0.31648485764341716,0.40550915423353245,0.24318073582062047,38.7250341821397,7.132096054560259,1.3891102968176527,0.0,-0.10363312762140381,-0.2732202270600834,0.1259840018338106
302.5000000007163,soft,6.139562339378721,9.819765009656845,8.960560720197796,-1.3239896672853382,-2.3395064908016074,2.4961862785510167,-4.60145876996337,-4.061017444756682,13.92867672170589,1.9673302889445683,12.040648419964239,13.18712990097234,0.14449768080256567,-0.3621788847052412,0.38180346962720724,0.24329790472080828,39.40677161693283,6.626247510918372,0.8292998199100684,0.0,-0.10301082409116674,-0.2718007781131183,0.13887676128234877
302.5200000007164,soft,6.368496104050466,9.643438296557871,8.917535552782992,-1.3281304056007408,-2.1791948646764423,2.497963776170449,-4.628424565603098,-3.5330378139492256,14.241207329491026,1.8122286753203902,11.565405486616022,12.946813348027346,0.08016846450659587,-0.39893726183566214,0.315857673694313,0.2435633406457599,39.7347264673675,6.0438971593375586,0.34185245352203714,0.0,-0.10186307270619435,-0.2700905765010598,0.1518056153795643
302.5400000007165,soft,6.550333866322504,9.415317019761869,8.809113383210054,-1.3291591511734477,-2.0104358891164678,2.484115570505204,-4.635536979442302,-2.996759980171288,14.487854798629794,1.6672231191488425,11.083320365431005,12.674587613320979,0.021170947143763164,-0.4309291338445724,0.22138765079938547,0.24395007546919503,39.78036733907473,5.358118597767277,0.0,0.0,-0.10014402520110648,-0.2681931534626917,0.16466425580392766
302.56000000071657,soft,6.692427724202322,9.148286639806079,8.649769811867678,-1.3275461282818894,-1.8344138942304813,2.4555164231158075,-4.627392155708424,-2.4575287798924013,14.677144806744689,1.5327837487587859,10.603303305318072,12.380040782963807,-0.030133279178499936,-0.46184494959050115,0.11134717372089221,0.24442024598066037,39.61619772262733,4.381843065642783,0.0,0.0,-0.09783084977448668,-0.26616389522003997,0.1773503127252836
302.58000000071667,soft,6.798293360630094,8.855512245557023,8.45531869336234,-1.3255742346994042,-1.6521246656721251,2.4127482357291203,-4.612720334611345,-1.9116269213519086,14.814013053364175,1.4065164136169317,10.124927543295268,12.09380668307044,-0.0709867742448036,-0.46221086950851853,0.0071966765603172405,0.24493181571387854,39.31550614394409,3.258727651483863,0.0,0.0,-0.09494174583829136,-0.26400888910965054,0.18977101303841712
302.60000000071676,soft,6.8784082131937305,8.55002103825739,8.22543516943215,-1.3220040821932917,-1.465240928093324,2.3569315439966863,-4.587482628702333,-1.3693256499467692,14.90816686705352,1.293396789724651,9.662650147589755,11.802516942448056,-0.10525149201973982,-0.4819951340420353,-0.09348699758050616,0.24544202472604115,38.99552109271314,2.3630416932374785,0.0,0.0,-0.09151814281042422,-0.26170161284972815,0.20183067578011016
302.62000000071686,soft,6.947503841052834,8.269689650264505,7.90520952850276,-1.3217633464579555,-1.2766262515286377,2.288116455137925,-4.554684699837923,-0.8426240813916577,14.966980363336027,1.1958237855640677,9.213156407226691,11.50196773737517,-0.1205554713706476,-0.5105904309334666,-0.17436799974581937,0.24591210077179218,38.746401097979984,1.7345662588665502,0.0,0.0,-0.08756361474020262,-0.2592303061662051,0.21341940390589564
302.64000000071695,soft,6.992496334155909,7.980679145075091,7.538865240978671,-1.320112233799907,-1.0851994693059277,2.2091376839420898,-4.518676691860136,-0.31620835695415206,14.991120142030853,1.1150485609165186,8.776921320500081,11.197744046098386,-0.12077968440722592,-0.5393501621407183,-0.25550613220590895,0.2463098379147948,38.35793559637458,1.31495030917372,0.0,0.0,-0.0830738254128704,-0.25657829071445304,0.22442339077587048
302.66000000071705,soft,6.980869087740901,7.623304517188131,7.237055642769495,-1.3157864150640755,-0.8872817820313905,2.122136297895646,-4.49609157335243,0.2473052413523904,14.978703582344256,1.0363949321994224,8.38055087067643,10.874661955508744,-0.13526354598739246,-0.5087939769263218,-0.3269100562978189,0.24660247365565358,37.61699121504507,0.15584261884425946,0.0,0.3658384130099126,-0.07808097634303211,-0.2536744236636287,0.23473524403966733
302.68000000071714,soft,6.940323893977968,7.25312693775798,6.93892724391314,-1.3112763099898816,-0.6942665273669044,2.0266843553366156,-4.486618913178722,0.8490222040289623,14.944381731930761,0.9638226602987571,8.03585533270574,10.505799145398644,-0.08135228953909818,-0.518947378677918,-0.3898405790929861,0.24676305776605806,36.837852963445044,0.0,0.0,0.632099798155304,-0.07273568588415937,-0.2504101399792582,0.24423158169501566
302.70000000071724,soft,6.898067392587957,6.850668560153322,6.629461833229538,-1.3060704999278867,-0.5051256693018037,1.924782179129446,-4.474993815261305,1.478167611877777,14.897203340121216,0.9244184668881094,7.662883677728142,10.18090240000786,-0.018635094437308517,-0.5575681310963493,-0.4616518158265748,0.2467657967927899,36.06680302337845,0.0,0.0,0.9359544490625673,-0.06699734033393617,-0.2467412969374375,0.2528243832379827
302.72000000071733,soft,6.852596954576228,6.41978386106054,6.317900150806441,-1.3008611851345364,-0.3153573252845513,1.8180136438792758,-4.468641117241896,2.1447709455062225,14.839254213336453,0.9125598601334641,7.266931382331481,9.90182977225454,0.034162066895241046,-0.574682142153832,-0.5207435955869294,0.24658294025197378,35.33894072015043,0.0,0.0,0.932818001041537,-0.06079219715778143,-0.24262883621720224,0.26044622512829996
302.74000000071743,soft,6.8052904223864354,5.96324636705824,6.01618911339495,-1.2946056320682429,0.018689563031128856,1.695087115430323,-4.469065418009823,2.862913175867562,14.776945016873803,0.9323760949109774,6.868196147473671,9.654778638715444,0.08263169978968048,-0.6005945227526103,-0.5294437427885736,0.24619176083965685,34.7327812999734,0.0,0.0,0.0,-0.05409200067718387,-0.23801275296826474,0.26702040078972933
302.7600000007175,soft,6.751948222044452,5.474135000130427,5.719811516037062,-1.287952733299254,0.3643878216672949,1.5971552143270227,-4.471205639966093,3.65140205093575,14.735213877792445,1.002732951766108,6.48322894470999,9.416871130024388,0.18056710575329488,-0.6521120270127233,-0.4998448735648125,0.24559254203384412,34.19855267318813,0.0,0.0,0.0,-0.04679578846383435,-0.23275088034835975,0.27243273071188573
302.7800000007176,soft,6.680136702862402,4.922378187377389,5.404698676372613,-1.2897752016363353,0.8313264995254692,1.727545944594826,-4.477654613100728,4.447503577703095,14.667029351706555,1.0970959420662778,6.024933027569736,9.236490549647563,0.2086047907344202,-0.6359734981276705,-0.37084231691500186,0.24479968339136005,33.494527452027,1.8739228159338484,0.0,0.0,-0.03879510783965742,-0.22682480115722609,0.27665638000752635
302.8000000007177,soft,6.598527230814817,4.315059138474669,4.904249277045947,-1.3013339609383285,1.645231490507601,2.3855259126894572,-4.4789367388788115,5.175126987551118,14.581461901364989,1.1967594042220042,5.376785447755289,9.098035211320708,-0.01893424298164932,-0.45776788262577234,-0.01321453522272383,0.24387562373717114,30.79974038325852,8.248858384679652,0.0,0.0,-0.0300618524172313,-0.22062346915456074,0.2798030989156544
302.8200000007178,soft,6.428483487953835,3.6506280167627976,4.24037147609371,-1.3262027856991392,2.43453802788129,3.1338976108438135,-4.5001637818806985,5.88731718566823,14.416019780065039,1.2360852751723557,4.594526117644307,8.90398305331135,-0.24989975869730371,-0.29330885137219515,0.20074948424984956,0.24295283518381372,27.615044424453856,13.717072426423416,0.0,0.0,-0.020897137978749203,-0.21482947954156834,0.28211651290624806
302.8400000007179,soft,6.157654153887652,2.8579942814032955,3.644615697405397,-1.372010439212572,3.3295681733269786,3.5701605618198897,-4.518501115518178,6.633630261918638,14.190230665007284,1.2593204446176944,3.7449000014026246,8.689403888971372,-0.3155824481590282,-0.19115795128250462,0.22277237145598722,0.24210975343580063,25.23326919929369,16.15493604094499,0.0,0.0,-0.01157897650597508,-0.20981528508523917,0.2837672458012669
302.860000000718,soft,5.8868339068812965,2.0145153105787212,3.083221643825393,-1.4198679234922191,4.282413830245407,3.901320721176723,-4.513015288814364,7.420072180784368,13.928229008604902,1.303408508536751,2.8417127474711985,8.48959929561825,-0.31566638205451486,-0.11385471593431899,0.19411116368140446,0.24135481125285646,23.259287123088207,17.55056908722531,0.0,0.0,-0.002200702821516397,-0.20560509577692176,0.2848383501282374
302.8800000007181,soft,5.613707867107691,1.1276530854967937,2.5653232956234513,-1.4887494330431446,5.274677026041579,4.194417177538909,-4.499604311736143,8.240140037351685,13.643868280227128,1.362341372008508,1.8947686854365817,8.311356519466651,-0.29334546332779177,-0.05930572346418203,0.16141233280744555,0.24067683327089603,21.755544323387454,18.477254272766892,0.0,0.0,0.007189616048095177,-0.20211957556500465,0.28535760691190026
302.9000000007182,soft,5.309396928514494,0.18053321154876753,2.1258378855041697,-1.578084904501445,6.2857852468054,4.476184285985034,-4.478839937950746,9.080821974068035,13.345863832508092,1.439193722157191,0.8974731258894852,8.165095301460846,-0.23018759088581794,-0.016041353075052986,0.1426875180730131,0.24006332019365853,20.384784399911005,19.223085131415207,0.427451744648263,0.0,0.016543081130238512,-0.19927533445534645,0.28532966145875915
302.9200000007183,soft,4.975070296509781,-0.8182147874144614,1.7380684232657169,-1.6703089543396294,7.303524031209734,4.703426802026301,-4.436056182465,9.920438461987105,13.036649912843938,1.5478909440487738,-0.1681178935028703,8.054463457991332,-0.2784828924914784,0.028507541675386452,0.2028998664866063,0.23951325815943017,19.66413824434061,20.66351360014295,0.6659697876441784,0.0,0.025866449756277898,-0.1970358174624936,0.28476081385370033
302.9400000007184,soft,4.590200121762132,-1.7875394280745756,1.4026292433317402,-1.7417643863997185,8.324457062544198,4.867137519291851,-4.349068279836384,10.77248545056843,12.710757352414188,1.7209582765309512,-1.2592631450120666,7.963933497441681,-0.33044605668522253,0.04236821222155501,0.2597059430430267,0.23904745884760778,19.657251988405733,21.7552298723879,0.894130444833011,0.0,0.03524688123315829,-0.19543101278648475,0.28364868502201734
302.9600000007185,soft,4.0965265230160695,-2.6805353170467283,1.1626869975694798,-1.77436759101279,9.162826764455607,5.193653594630143,-4.231966091690508,11.612309273692336,12.341379473026977,1.9506277473442726,-2.376997199064186,7.9003707104612175,-0.3605139150604418,0.03347495841087291,0.3669225428559237,0.2386928714611321,19.658187737921573,23.430560044855984,2.0304247379859515,0.7334985463095629,0.044748649861880645,-0.19451483511862966,0.2819179677405812
302.9800000007186,soft,3.508525924307153,-3.4466588136715695,1.021508978621616,-1.8011239880497902,9.895689607813882,5.4872477113103475,-4.094992010980137,12.40915621940206,11.939432600943462,2.2217775852870085,-3.55727816205394,7.877311238894224,-0.42909126008289994,0.09202196634383818,0.43981451744475913,0.23848888508648655,19.68358415243237,24.91418257717589,1.9145170112598604,1.511811441751416,0.054428057255548834,-0.19447114620488373,0.27953597190815527
303.00000000071867,soft,2.883884347507132,-4.092993084886349,0.9622024799996823,-1.8842267933057038,10.557726187984274,5.757114511444447,-3.9789083044462012,13.173936723431451,11.540229333466247,2.5219112103814867,-4.708190237563334,7.8539724823747425,-0.5106770823780279,0.16018407400954046,0.5311699356190287,0.23846713219608678,19.758542621931113,26.302977053477996,1.9247652058143807,1.320907533149935,0.06408346247444742,-0.19542076089504393,0.27638415971633085
303.02000000071877,soft,2.421463117614868,-0.7116355631055673,-3.7639910012147375,-0.1486207424073327,11.281066700099577,0.3920775380569168,-4.512875418134392,19.06343233502039,1.82091288938288,2.9075953068624285,-1.6953200003633748,-1.5060019867946046,1.0603343289190705,-1.1314189900198954,-0.8793799856772627,0.23818385117656524,9.013467745697223,26.51123698158293,21.257840185332068,11.674886138268581,0.08693193918956744,-0.19656427960837086,0.2715927000801197
303.04000000071886,soft,1.4432315476514597,-2.0799279321107567,-2.99167959893024,-0.9878152582879514,12.058853659795949,1.239796653012469,-4.358672312407279,18.35299390931766,3.6586804194658598,3.639797827439029,-3.873371740562918,0.969553812321923,-0.3578901017038012,-0.5379501244796172,-0.4355393078162985,0.23757042254927,10.969215019541936,26.946848922496226,10.08719284270774,14.099543963905605,0.11269973812348413,-0.19982748761189728,0.2635402740651321
303.06000000071896,soft,1.4204909275129367,-1.318970184066648,-3.1906087808053263,-1.8987699578244575,13.055147880135866,2.2850633712824546,-4.336924202805358,18.243259803848275,4.850509410545701,4.162626422629779,-5.095282888155975,2.9387675896466554,-0.17031748832328056,-0.015106175041536,-0.2158443636912206,0.23677464756791303,29.623379067840894,6.719862098900842,14.534239931402734,33.5204447703016,0.13756890351475137,-0.20359199888956175,0.25299287991229
303.08000000071905,soft,1.624186612320116,-1.5072613813224596,-2.7530198118391116,-2.940281469927828,13.854565206695494,3.3666125323489844,-4.360732605918261,18.29505566265172,5.540619136345935,4.474060985015317,-5.98925992693253,4.658701881319123,-0.11541768213049292,0.23670546568617457,0.23007889728069084,0.23590095743312992,33.300072607861225,7.067593084003086,45.51223136362889,11.05386740825518,0.1599942894808165,-0.20725748119441847,0.24032105390256253
303.10000000071915,soft,1.6254027802966868,-1.8667209011655883,-2.3372822825048836,-3.880315387808351,14.337983720523823,4.265962343652401,-4.346796746290513,18.101381111355515,6.336679861333865,4.837222570051801,-7.089839998110366,6.076273415967268,-0.44237775057398054,0.4615133689901008,0.3148453300931019,0.23506806678621006,36.49085918354491,47.405284339658195,14.696954024933095,52.544579310165176,0.1797660383237271,-0.21143656360438218,0.2257988383415933
303.12000000071924,soft,1.639898571053533,-2.153333317353585,-1.9324753719627505,-4.648151289865645,14.684504901058881,5.052967822799129,-4.259722103279862,17.913753697701413,6.976271317181485,5.1370026923696575,-7.538813982271882,7.547228185184068,-0.4954891718806115,0.47737918349095226,0.709057286693185,0.23436429582672322,39.20447952859086,47.49924449695457,15.241483346398528,55.26114879233444,0.19696186328872697,-0.21661017563021837,0.2097963266017284
303.14000000071934,soft,1.6440905906546395,-2.413052257895173,-1.544702283448347,-5.278157980267541,14.871654510495217,5.68757585433394,-4.115530068662874,17.640000204388407,7.52368759402879,5.393282211302024,-7.703324931507369,8.902578141805279,-0.5027586425531407,0.45791491569263726,0.9441400866090742,0.2339382819248166,41.113169425151206,47.36463151147816,16.020964823587644,56.51704479779294,0.21188959305642283,-0.22274463155447696,0.1926512355506036
303.16000000071944,soft,1.6406353936810105,-2.6334676302478544,-1.170970140763183,-5.803233446268793,14.904597177667231,6.182524863538658,-3.948166118155581,17.27251747350714,8.014861927176007,5.588032583273463,-7.687659288332978,10.137082668816696,-0.3492716246055822,0.45714820238707254,1.2287401828940496,0.23388147179131105,42.294971645009845,46.80263117053463,3.7855278083179904,18.348123673335408,0.22471931241142257,-0.22995360722010616,0.1746360099413153
303.18000000071953,soft,1.5856675139474223,-2.801308397548117,-0.7902400310289122,-6.2695093358957115,14.918544145048608,6.652509565928042,-3.8857376277302276,17.112434577206493,8.22617781102248,5.782214691411009,-8.778280330900943,10.204645265079247,-0.2904881551725977,0.4716380645341775,1.229128309736444,0.23427403055245666,43.53903172446826,44.91260426414172,0.0,10.876189298069356,0.23520709840283036,-0.23781138065124727,0.1562771209660162
303.2000000007196,soft,1.5398019528431988,-2.978791451389987,-0.32690777729456366,-6.788844751149712,14.903569166971884,7.094920048534137,-3.737945745121407,16.858276919885142,8.07011784287729,5.927063204371494,-9.57986701883135,10.186038543432408,-0.03005456366802959,0.7067290040139532,1.151844174601161,0.23514213602607023,44.815006873726894,41.01100812684795,0.0,17.072387283942806,0.24310947218281037,-0.2456647970189201,0.13774102786284018
303.2200000007197,soft,1.497674832006609,-3.096051959021315,0.1913479788164354,-7.32410709525624,14.816671985641877,7.476981039164122,-3.544660928297714,16.320847602198587,7.851067129312865,6.062030600183356,-10.142205718520984,10.21309947248176,0.08444461838277274,0.8682903691374187,1.035330141876816,0.23645632551036672,45.79557559367147,38.10564304550265,0.6385206200349987,20.74886942103973,0.24820576503839922,-0.2533215669830602,0.11888327742949613
303.2400000007198,soft,1.417169862951604,-3.168757157488394,0.5287205118273715,-7.325414993398608,14.379789691921664,7.4641303203164835,-3.471885583520586,15.775452220584096,8.006821661254264,6.142029554184911,-10.386316257138041,10.301382938539184,0.20870397292864887,0.7674922463573187,0.6211203572893949,0.23814631376309897,42.68699524153729,37.76489801092766,2.929362511497628,21.08360611630063,0.2506147011783351,-0.26040689554882473,0.09980472419029217
303.2600000007199,soft,1.2603081870245454,-3.215087995706849,0.8582269774861009,-6.518274565415917,13.158940210792554,6.864929358301427,-3.678489704927703,15.492976997376665,8.446581676337972,6.023278761330149,-9.953532812764418,10.259726657903832,0.33563169239332763,0.4781469523749947,0.014529807994146047,0.24004636651473032,36.129754672203745,39.258199599401976,3.3285853134566694,19.68747861319343,0.250127098564428,-0.2657390833336394,0.08026117898847045
303.28000000072,soft,1.2267959544653753,-3.2376816345474966,1.131457052790219,-6.012512613430884,12.038399396925438,6.802121968804499,-3.865232478182874,15.301865392185054,8.939313891563213,5.940867180439962,-9.285085984362262,10.257244979746135,0.46866916996468305,0.24809502778834985,-0.3404474436084179,0.2419326200734198,33.44684216483876,40.72496259681606,3.1476591502339497,15.16827979692194,0.2470666315471796,-0.2683003740423703,0.059795637601487706
303.3000000007201,soft,1.296209479849075,-3.237541195621266,1.3532061827346982,-6.331572945639817,11.828437150910226,7.231325425173071,-3.8567103928688162,15.006200571024879,9.39762597482447,6.010597816795524,-8.89086267929681,10.476381951931824,0.49496930963533103,0.16896167750530808,-0.25001508193470956,0.24368865755374458,36.00657483676589,41.52811744993901,5.190324479881898,13.566414764109448,0.24273271340294614,-0.26835705943304167,0.03858754287804379
303.3200000007202,soft,1.3814479264242545,-3.2084878894589437,1.5499711720329539,-6.974742783017403,12.043327475747336,7.821722018675111,-3.6507693613695684,14.614197182808706,9.754784385485305,6.205473792207395,-8.768853744794466,10.875148608043649,0.43712098150568973,0.1781483863360431,-0.01473043129861863,0.24535210187274978,39.78320587351546,41.78623028289338,6.093776207436421,12.690267403647397,0.2382258978679526,-0.26686634879351195,0.017242928512106726
303.3400000007203,soft,1.4039802211662726,-3.1649181669615887,1.737832349167764,-7.5429757114477125,12.18624936913469,8.357889851158436,-3.3915193819263107,14.158182215514286,10.033152652894252,6.39455503851649,-8.68857468125194,11.198360639199826,0.44577017678169417,0.23076121325103802,0.04998296837554346,0.24700545072681093,42.0135195066002,40.77876957407041,5.679033573184315,13.176908698458252,0.23396393360650228,-0.2645094557883793,-0.0038055108779218296
303.3600000007204,soft,1.419498319560267,-3.102743628508433,1.9058692665404031,-7.9821675038491975,12.18677422968368,8.748760599248946,-3.148484837664671,13.607412307765117,10.317643793475396,6.565727013166237,-8.70478091118325,10.872826024297263,0.524182488818952,0.1572872941020991,-0.008830496778427259,0.24866998551383201,43.653566883006654,40.51704393781257,8.080170486680013,13.002912370848804,0.22987155409521806,-0.2617114947185375,-0.02433298406449639
303.3800000007205,soft,1.4220087566699986,-3.017758496157879,2.057332141861221,-8.289406384199108,12.112157977992421,9.01774239255951,-2.9102270578974387,13.098809582119072,10.473946638547737,6.654521798712226,-8.814315890744446,10.35891318079316,0.6005038573415215,0.10426478173088699,-0.05162144095783429,0.25032406486589814,44.68728069001977,40.29781197302554,11.972934135377892,12.231679338255308,0.22608103803853538,-0.25866429145781267,-0.04393978922982238
303.4000000007206,soft,1.4084056664575657,-2.916426829904365,2.189228403340425,-8.547293836271862,12.01920179610056,9.226157572444537,-2.6824393099039616,12.655240925251466,10.50030897526335,6.651290649403714,-8.806266762187985,10.379043206894849,0.5715605484213698,0.1586745968832009,0.0009079437655244781,0.25195761894014723,45.50294046748264,39.55176471541767,12.91000231870349,12.582857599643974,0.22259399497795318,-0.25523690770009766,-0.06241379308595044
303.4200000007207,soft,1.39424402126695,-2.8061121486357514,2.2960121578372945,-8.804182332512116,11.918731504125452,9.384539670505339,-2.4549980793765362,12.22593661010934,10.443386787603743,6.617616531299641,-8.546357635202781,10.85604278318165,0.48677362405674934,0.2546744713218442,0.06661877110644832,0.2535919528869247,46.191868550351366,38.581931499956795,11.524040480038394,13.549849109210264,0.21921280975070234,-0.25122557561251946,-0.07989815394849784
303.4400000007208,soft,1.387259469542321,-2.686223703062506,2.3780023884791044,-9.054373539458284,11.777684087059967,9.48245597637494,-2.2269085213283204,11.755940148312614,10.351700832424582,6.589678263803818,-8.10195245723139,11.461452702616828,0.38913297070380315,0.3270549872665238,0.07765216742444697,0.25525065161072225,46.69877796037505,37.70952810840346,8.978202042134551,13.28739779169712,0.21570283292427184,-0.24660352511168812,-0.09665929386962172
303.46000000072087,soft,1.384806996013114,-2.554172212047395,2.4383451609404787,-9.280420340221184,11.580062253816134,9.514576555864574,-2.003358711310698,11.241866204618201,10.237008376222335,6.56891165720438,-7.571721753044626,12.006725148404662,0.2931103719255007,0.36777184970482235,0.03306267778825509,0.2569362095616661,46.987171301398824,37.006352133286,6.8115161723436035,12.437556893275044,0.21190091358890906,-0.24149230698692292,-0.11287541205889975
303.48000000072096,soft,1.3828420758606066,-2.4098207103876135,2.479334290672992,-9.47465711735389,11.330312056038784,9.485424242760772,-1.7891913024466835,10.7043445487677,10.095260935743074,6.547780987245167,-7.010245245023697,12.473012583294441,0.1988542652038638,0.39220705000691697,-0.0456193629153458,0.25863021094130506,47.07448323902246,36.42358822839204,4.9977460484343545,11.295729450564421,0.20771656898928367,-0.2360439758531363,-0.12861117878306452
303.50000000072106,soft,1.3798041260046054,-2.254791559765952,2.5020477968676325,-9.63813624191726,11.039717680200425,9.404623007590445,-1.5869772570095362,10.161128510730826,9.925331889519988,6.523283516807354,-6.437450134715925,12.873698236451173,0.10822141789085665,0.4106337150664336,-0.14413191665640768,0.2603009772660203,47.006421765051584,35.924716532432534,3.3735238681377946,10.076231402241737,0.20310204344705704,-0.23038011836486255,-0.14386727739979943
303.52000000072115,soft,1.3759683577311865,-2.091525567583675,2.507097251329931,-9.773614297525583,10.718079535988295,9.281847599456025,-1.3957164457887077,9.61816086849401,9.735152948180996,6.50004643202937,-5.859964508001432,13.216222350148842,0.029010339720961315,0.4743087776051246,-0.2680686213033219,0.2619089472133217,46.832946724875164,35.58744349408751,9.507709693968714,2.666643870864636,0.19803557484907947,-0.22458717471114026,-0.15861863120966532
303.54000000072125,soft,1.3796090695050978,-1.9249514745158027,2.4917777527327143,-9.871344205612674,10.357843617128054,9.11304052827541,-1.1984733369053884,9.031922044805667,9.573072428792386,6.481888478578317,-5.2026877118475525,13.580947999587824,-0.09109702572412084,0.4004293218858036,-0.4499443044936568,0.2633996528144429,46.47580239407058,35.73881162404406,7.450447679345714,52.98445909662317,0.19255301066178251,-0.2187969370799827,-0.17284913097161214
303.56000000072135,soft,1.3724229900950882,-1.7417471737744803,2.466005775586537,-9.94797313531946,9.987256768099613,8.916306982269163,-1.0258702751085191,8.483310846274506,9.381326670041956,6.444172124569788,-4.555844416509366,13.92004098406995,-0.1905987937261775,0.40874873739950973,-0.5272200239244702,0.26470976927616174,46.0965147407147,35.78859398874656,4.526430918305352,55.04171382946506,0.18675556046362876,-0.2131475425389345,-0.18645913066819372
303.58000000072144,soft,1.363528185148667,-1.5550571718377446,2.425705717518131,-10.01699720331899,9.618422076680599,8.712438795612645,-0.8798540571898841,7.981976889241852,9.160745458336272,6.413961520126665,-3.9725021934977685,14.162126677686672,-0.257650669012225,0.4340085802364236,-0.5963350129451795,0.26580691375708626,45.7854038615453,35.720131397495884,2.340276992720142,56.53096555936887,0.1806103918970125,-0.2075688019389154,-0.19937546092455474
303.60000000072154,soft,1.3570595738577222,-1.3655009801467592,2.3715391346536876,-10.073799946398507,9.252783555295673,8.506108097199887,-0.7493328869238003,7.51506456826203,8.925850370631798,6.402646181094223,-3.43249275264676,14.318958745816676,-0.2942683440891819,0.46898061283927656,-0.6526157703116231,0.2666641108837019,45.534365284475165,35.61360667771513,0.83705680072512,57.51553147700873,0.17409895850917673,-0.2019766353012386,-0.21155058445061015
303.62000000072163,soft,1.3524182463318122,-1.175080479311422,2.3040561987274453,-10.13128629661724,8.917994337200877,8.255682810541769,-0.6436544534683835,7.071559759408837,8.685810500638715,6.39994267675921,-2.9203893296996926,14.40386076343845,-0.2978791534577673,0.5063682399375699,-0.6656832256555224,0.26726120276121085,45.56692191585333,35.53167122669331,0.04534148636891043,58.073536382999706,0.16719794542234503,-0.19628607794774167,-0.22293639520652553
303.6400000007217,soft,1.354574186021431,-0.9818157825196114,2.2252699919764085,-10.180048640176508,8.62744592982104,7.916223206980193,-0.5693432649267247,6.6549426675607855,8.426439443274408,6.39856792326194,-2.412759175814208,14.431128862373296,-0.26096678465556505,0.5256294284210439,-0.6157624653210608,0.2675950319767045,45.6377025362879,35.924037913987576,58.34006424372009,0.0,0.15985496722097856,-0.19044158605634476,-0.233439937646301
303.6600000007218,soft,1.3542634935993505,-0.7861751790955396,2.1385718467549077,-10.175764297936759,8.265019944573476,7.651146220531839,-0.5190682208788352,6.3241282414682,8.081806935133214,6.398412301517065,-1.8604979753583004,14.399086615507974,-0.18446299278828637,0.5368687635646857,-0.6266108500264711,0.26767946639072815,45.170223646663715,36.31259048801196,58.34613986116051,0.0,0.15207688957760565,-0.18429915948281175,-0.24291357402344896
303.6800000007219,soft,1.348134611233008,-0.5991397781749055,2.0419219602252188,-10.157385495975138,7.847684114965864,7.400865168620469,-0.5064717438097067,5.954882970485034,7.776532956202539,6.396269345710774,-1.2902115327474464,14.36064442197446,-0.11829682056363043,0.6027516024369024,-0.6733285022466213,0.2675108527139316,44.845392072552656,35.86908737071727,58.48074377392517,0.0,0.1438342205101154,-0.1777794929238856,-0.2512687053093366
303.700000000722,soft,1.3436507353384022,-0.407369947431485,1.9398453863723786,-10.127513141450862,7.4020563354424675,7.154193432459771,-0.5275848669720319,5.556115984146122,7.517086727183233,6.397572708710124,-0.6804142323830131,14.304450185187047,-0.056394857160932996,0.649370943176272,-0.6849078668905735,0.26707444971212596,44.61559902520397,35.862719517107635,58.5694044396245,0.0,0.1350483393502056,-0.17086308579025025,-0.25845689576555536
303.7200000007221,soft,1.3401127395661723,-0.21642477021871637,1.8325395955053772,-10.078835405175848,6.9214655587582925,6.920896988465058,-0.582031099169992,5.1424039955765535,7.286191104690597,6.402727864209456,-0.02727361201278322,14.224016965706827,0.008988366486953623,0.6873822739944536,-0.6745750265177854,0.266366496088455,44.55553649788644,36.1182757992398,58.565747303580224,0.0,0.1256760132464484,-0.16348413638667236,-0.2644095764613086
303.7400000007222,soft,1.3361955270553265,0.12008884236558429,1.7069996305813202,-10.00314056757607,6.393450395660545,6.7146425583294675,-0.6726141120285893,4.7206012534043005,7.076648100126655,6.410953627860636,0.6720471503371694,14.110689201864409,0.06176708882056353,0.7295293167699638,-0.6484277910723731,0.2653918329324572,44.79982177973542,36.52551612740218,58.38710959774172,0.0,0.11567650502123028,-0.15557164366710993,-0.26905844013908764
303.7600000007223,soft,1.3444858635552968,0.6185348715345267,1.8603858560898452,-9.89994482606519,5.802390543230086,6.494039476161694,-0.8006924274833866,4.236066025718225,6.908036611846567,6.41504570020005,1.3872302507114802,13.970894974374296,0.0659589287066997,0.6837351433897142,-0.4745812090691079,0.2641656076984803,2.249346489912988,44.78975181885599,37.546117151472686,58.0857483801448,0.10498884329566496,-0.14710708291101282,-0.2723591095754259
303.7800000007224,soft,1.3813485215203958,1.2603018133580894,2.807330081322154,-9.783065937664736,5.181726165311314,5.998874497130124,-0.9003712689615477,3.5196610355475904,6.762545968387744,6.4124500558008055,2.048795496046883,13.794309726254113,-0.31636056985125144,0.39477278139429706,0.03176407074421092,0.2627735659267837,11.906184057934952,41.686789463497554,39.50767989482285,57.56918273012947,0.09359849433977477,-0.13860276627739954,-0.27456263298881456
303.8000000007225,soft,1.4851885006777623,1.8886500155408785,3.7184110676180535,-9.51234668005876,4.515933917775499,5.260333124921787,-0.9136409361298892,2.702808262291197,6.5087142901816675,6.458353246367063,2.6786025846654624,13.558737835263223,-0.6047135117339401,0.19446222713703493,0.26271132051939394,0.26139529705067854,18.86001886312726,37.701569819730494,40.77578001710594,56.721353476219804,0.082016178402996,-0.13101588379610626,-0.2759630073464731
303.8200000007226,soft,1.5884549231478853,2.6720285972706956,4.238332882723437,-9.150845710283697,3.6863122197857527,4.636936088981387,-0.9366657509563603,1.8530941845254942,6.210859816771794,6.471625380172605,3.372260930006766,13.264368248332875,-0.6722323065901581,0.10948727888677748,0.35521681370633706,0.26012326714299516,22.02007316861977,35.112149233709324,41.73679001529326,5.276915719609061,0.07052316693671651,-0.1247305578957927,-0.2766975872505974
303.8400000007227,soft,1.6661198345109032,3.548710855840011,4.610838454396031,-8.789500306966719,2.808992817989795,4.058801853942375,-0.9922206045044688,0.9816305783535713,5.895509597363278,6.445564756535547,4.133948815829014,12.972137946381348,-0.6549871362855023,0.05151902844019785,0.2972503896196163,0.25898497292815104,23.66551236240856,32.94194210190296,42.587912142704305,5.774130387099326,0.05906757483311456,-0.1196359082394898,-0.2768921986938559
303.8600000007228,soft,1.7613431852025563,4.478582082492177,4.912969823974344,-8.43031826002766,1.8956167927218457,3.5130703913602925,-1.0563217396814717,0.050502024513804145,5.615453979480323,6.416564383404904,4.928764620793446,12.682144030454431,-0.6179213987790031,0.0015999269781792828,0.2238141708042471,0.2579632676421896,24.595920375548484,31.13310872410376,43.76246192202693,5.347320099991784,0.047671281317330894,-0.11563409929128841,-0.276601218762421
303.8800000007229,soft,1.8581306958213362,5.451854663195729,5.193071856160307,-8.09377995842173,0.9531842446443286,3.0098912315256756,-1.1528775331680579,-0.9217113698858539,5.366311521859938,6.36452749566441,5.758641641775646,12.389176615678604,-0.5737364730337566,-0.04811462009619605,0.17222802949860713,0.25702981926774154,25.234294874649056,29.80796319245049,45.186755118483305,4.844619994106182,0.03637345947797833,-0.11259364398686827,-0.2758418271763968
303.90000000072297,soft,1.955865984358495,6.4703069295070765,5.400242801036242,-7.753985488684665,-0.022832020330965652,2.5471028763215666,-1.289081773425996,-1.9357170206499057,5.140873055807579,6.2837400480843995,6.606135400218638,12.092826984564983,-0.5654095183767861,-0.10184173328011682,0.18766891432287106,0.25617030058958096,26.34831238840109,28.875053322244504,46.782468849805966,4.394162282470055,0.025128298535614053,-0.1104107870083212,-0.2746134723261217
303.92000000072306,soft,2.058053398114002,7.526926033423608,5.53874417775153,-7.388708148224542,-1.0274238646177731,2.146087226075623,-1.4631740047398005,-2.982698581611855,4.936401856231096,6.178329624295939,7.467132415284524,11.790474477351049,-0.5249104618193005,-0.12812200895089787,0.18160833672125887,0.2553854849806011,0.0,26.63052430893935,28.48825188229817,48.454699175372845,0.013945153031175949,-0.10904444366604799,-0.27290966603301625
303.94000000072316,soft,2.1695985081764864,8.5889376958461,5.703423153303431,-6.992446906563014,-2.046833145826945,1.8288702190031993,-1.6832382481457637,-4.052839738621775,4.776676137545493,6.050796737260507,8.341048763963755,11.477657341579558,-0.42886395288061474,-0.1291901460486552,0.19032682867848502,0.2546721182971098,0.0,26.196734329835923,28.679034636142248,5.113007422831896,0.0027960450225673118,-0.10839014149864475,-0.27069457372089567
303.96000000072326,soft,2.3001114995756766,9.558611498979646,5.995967207024972,-6.515898611608443,-3.0981735525302065,1.615515612407219,-1.941668550038812,-5.155341369409757,4.6859555413723815,5.926239088414796,9.190671752506256,11.177431304655881,-0.41947753030113955,-0.17580174714956195,0.25989704648540857,0.2540342246762402,0.0,27.24216109873387,28.17257852578664,6.0296278968362165,-0.0082696848267806,-0.10831742883129238,-0.26787139437065594
303.98000000072335,soft,2.3876694615984513,10.392655873777656,6.339093780858104,-5.96153612772051,-4.095128484893821,1.458511702961397,-2.246727675865258,-6.267792406463977,4.603152826156833,5.780177474191863,10.01495057137598,10.86988832583152,-0.4530175081558951,-0.19480799664944282,0.36905277803381,0.25350523386243284,0.0,28.91928516097339,28.52169945539737,6.258191845062398,-0.019192552889581205,-0.1088703466613108,-0.2643536912464372
304.00000000072345,soft,2.4577413130389916,11.128306784345865,6.640840309610845,-5.319238221351043,-4.986821486949113,1.3776822518303489,-2.584239672768219,-7.388450309267262,4.533814163542971,5.623877776736167,10.812685600236188,10.545679221768738,-0.5854770419141497,-0.23160986210457507,0.49262505875259965,0.2531328380121587,0.0,30.44717147023295,28.902742303599307,6.710348078712379,-0.029969363389023194,-0.11025900457056625,-0.2601426885051827
304.02000000072354,soft,1.9211280195338116,11.454424252411822,0.7292053879221321,-3.6225851150132202,-2.0397058899044156,-3.144387893387302,-1.9545829264016814,-3.865171502308656,-2.601420081365779,3.80635973741612,13.653293528233492,1.6101095262105325,-1.0284677356569962,0.20783222661441708,-1.3656149243641424,0.25124185390533216,5.567594266663169,23.03041550758382,20.167176776345674,7.788443781056682,-0.04289670578014108,-0.11655807658194686,-0.25481439877658874
304.04000000072364,soft,2.2938249317810193,12.65948067194386,2.0961107912315846,-3.2935748915905365,-3.754331810653877,-2.351348166316072,-2.426374360856939,-5.873813183249179,-0.9412747052036057,3.765718058505853,14.628375715899418,2.696905659833952,-1.2247919228087316,0.025517571288142107,0.03911785657831286,0.24870131399569986,4.262439110435603,27.368069638308647,26.362433326115106,7.449290152555408,-0.05606244753285446,-0.12347293212518487,-0.24861650643280903
304.06000000072373,soft,2.6204815999037647,13.798248125312401,3.1109663857992302,-2.753214519959779,-4.941175690085118,-1.6364322071298965,-3.01059035783857,-7.538404094212056,0.01154736848110538,3.6034642390243667,15.463503564531312,3.5773372837960054,-1.2427904038787392,0.09905886762759064,0.5247718298216805,0.246162047750615,32.660353055946416,29.716971885602636,54.455258637604864,7.662693741970457,-0.06884712880607317,-0.13008123701382263,-0.24120864014709956
304.0800000007238,soft,2.9219160597344325,14.521826323756748,4.216514971365946,-1.959933095024195,-5.367289746957073,-1.3274300109489632,-3.6110886357734735,-8.922174320144759,0.9317497446662077,3.460306937485746,16.029385384971683,4.513372999414825,-1.1266331913818497,-0.1519207830382937,0.6140846971349299,0.24382407422986224,36.07095698774762,22.334220818109138,57.219974459402955,7.356965353893071,-0.08131472222128659,-0.13700775772937754,-0.23243941602832752
304.1000000007239,soft,3.429307328279688,15.109563866683756,5.309938130148568,-1.4338881318105612,-3.0310296673039883,-1.8647714023109776,-4.0460764012256725,-9.966844538706676,2.194514957296068,3.5507102757304017,16.31407960579883,5.83239629204682,-0.3470315081903819,-0.7839734664880496,0.291426469817178,0.24167116535402997,39.81101833120305,4.04102629864194,60.62547318392016,10.677329264079004,-0.0925113834416695,-0.14443330955027298,-0.2223030443757722
304.120000000724,soft,4.156332042368618,15.573281161154227,6.286290683050105,-1.9550486812614336,-2.4648403702624524,-1.7284371882242566,-4.241683923381814,-10.573970510496562,3.4971973460535057,3.8640651128180874,16.474326358459532,7.170443856590319,-0.23171231197328895,-0.8865903824437916,0.7476252804204986,0.23964939738306082,43.31659384255734,63.6115271796717,12.514124687103156,38.434361357018496,-0.10082400275490717,-0.15230356973831177,-0.21089322364724933
304.1400000007241,soft,4.590204759436606,15.904489257546508,7.0725592888037845,-1.9728957391679325,-2.663977484315156,-1.3725862203640005,-4.576149248462249,-10.79248490726631,4.747915733710197,3.942188310397048,16.64410083005555,8.195896863443425,-0.18173488550409192,-0.8486855523045309,1.1491267505178155,0.2379281295780475,45.4303764315979,65.14177790537433,13.060423566377466,40.744003185106635,-0.10664968958338926,-0.16045851251719526,-0.19842823284177455
304.1600000007242,soft,4.890746402673124,16.014139265081837,7.656892568588686,-1.9397638979447782,-2.8556878693204526,-1.025136360818457,-4.866346750867911,-10.792824199065807,5.93085213912032,3.9751492525712617,16.69423821060149,9.071918332088517,-0.13694906204611965,-0.7859859973065655,1.3849187051155603,0.23666211492350578,46.458429479482774,65.78293836096631,13.297303735649297,42.64943780749349,-0.11050052151770194,-0.16916866140695033,-0.18521855577058513
304.1800000007243,soft,5.101554558610327,15.933106683108386,8.077854225410409,-1.8992811238887661,-3.0137509055391405,-0.6892028337910596,-5.098514926093913,-10.610690664581712,7.02500438259378,3.987259900450479,16.621222054967156,9.840128698364556,-0.11000522600275577,-0.7035307632179791,1.4846662706602127,0.2359412150649263,46.639028040376736,65.64553304509856,13.33018918724249,44.33622037941015,-0.11255360566504757,-0.1786882718769619,-0.17145097993704367
304.2000000007244,soft,5.245572365423808,15.696693498771623,8.363516436663067,-1.8581923715801978,-3.1488274330510606,-0.08606053719477627,-5.265862542439815,-10.301388122637277,8.031417063887435,3.9879160497339714,16.45399760843278,10.487831521626806,-0.12407188367397845,-0.6440221725182059,1.4254781210991991,0.23579675206540518,46.13603854427983,65.0603008757416,7.931245314058337,50.24467505211049,-0.11296042966209131,-0.1891716850482188,-0.15727344126773388
304.2200000007245,soft,5.334770381813614,15.331792871467217,8.531505911155561,-1.7984886675097582,-3.2355587389598437,0.2479511430814062,-5.388091336641593,-9.910388488693384,8.966754893018052,3.9698531045938603,16.193622305746487,11.010536359069476,-0.17828784649804652,-0.6037107892648249,1.2729985591065007,0.23620400469014544,45.08208312077568,64.30517611426934,57.892675346619335,0.0,-0.11183332440456545,-0.2007610216223348,-0.14279988792991904
304.2400000007246,soft,5.2381558756374815,14.760599978692543,8.43485150621076,-1.7169364542682441,-3.297159716699147,0.5582221130111562,-5.475889852722418,-9.391680451888,9.75784910213467,3.9474756603049515,15.875128833781268,11.466287485389994,-0.16811384964265172,-0.47716731844954235,0.9452580991189986,0.23710123573971434,41.477404043702734,62.73257217148367,58.60667249261917,0.0,-0.10924962765228577,-0.21344002703305298,-0.12805032065393745
304.2600000007247,soft,4.2178793297853705,12.729354287590988,7.223892131723387,-1.438331090611039,-3.3315735374032602,0.9029887770018767,-5.385574051749956,-8.437982860307791,10.106844588134031,4.108625385208205,15.693783201417794,11.95120749102851,0.03758325836744639,0.05026181746267022,-0.16307298617745025,0.23830882395277553,28.707193456670016,56.09486744413952,6.304358577038038,54.71152316435284,-0.10488130186669523,-0.22607701895752114,-0.11241765730402238
304.2800000007248,soft,3.336100107231388,10.459808713051238,5.938387659282888,-1.274704625926663,-3.3372169328515273,1.1972427295620225,-5.362269777689049,-7.240323425569549,9.951294084177267,4.2087924411063025,15.701802885107892,12.496759999181648,0.27449152411327266,0.5377053585169744,-0.9827521140589472,0.23942652082964988,21.280220526333867,47.87753090887554,9.710407567094025,53.53961026254383,-0.09897410520784163,-0.23636637072249403,-0.09457647807766693
304.3000000007249,soft,3.2326957656606177,9.507458358816256,5.850213384868856,-1.3743646739643545,-3.3589537981030535,1.3920268543991856,-5.163065857907983,-6.224656600774214,8.374831970168799,4.154437985188758,15.387585643271228,13.306548507204615,0.7631632016902917,1.2200066844780357,-1.7417643720948301,0.24010316005657212,21.4207034010769,32.62731835636752,12.593546395088312,54.34385568313683,-0.0933689801873533,-0.24429495385728128,-0.07477461544588514
304.320000000725,soft,3.3920956130023137,9.446888983489703,6.406057052753046,-1.4524708042090309,-3.2993428315597804,1.6005405127885766,-4.882608669793396,-6.310229022890013,7.4695474710986645,3.967404470539595,15.077194391986751,13.885482862525084,1.2707307134440489,0.9632017939016213,-1.0181604917177445,0.2401651044220237,25.219272580258853,16.173306315436694,24.667853187359587,12.135991833641873,-0.09059972304567128,-0.2514983745647526,-0.05535262485305033
304.34000000072507,soft,3.7590243245415618,9.654922352741124,7.332780100490921,-1.4606217774213417,-3.2330429001091883,1.7875317598071518,-4.886362798734986,-6.903228941224125,7.908462921792882,3.820893489239992,15.042318746948716,13.992346951848084,0.9974919873677233,0.4317807544748207,-0.19193611348150924,0.23990967822811268,31.330303745203267,6.39996221220674,13.871588609588821,1.2586653725145096,-0.0900720561815808,-0.25729606097664254,-0.03772874171433002
304.36000000072517,soft,4.172806000142629,10.00087320465672,7.96958108642468,-1.4214224296526101,-3.1623639014203144,1.9537128534367012,-4.999503471026143,-7.216387270601794,9.158286119854303,3.6577707409640516,15.009614009111056,13.986110599027551,0.6279538262173715,0.20219663088623574,0.1398515112226168,0.2395811936500981,34.19136000312734,7.6587593416987305,9.069531402050918,1.6056867221868147,-0.09101551955951342,-0.26158221234744783,-0.021480393705889358
304.38000000072526,soft,4.697998123181886,10.385510501553249,8.42850978887203,-1.3958384136835036,-3.0946678374376706,2.094822055396188,-5.128644928931162,-7.127961356835183,10.175192338071449,3.4775498819321236,14.844805480427546,13.948344894405093,0.6200498265795388,-0.08232481456630658,0.36980495692500315,0.23931250523244724,35.808546109965356,9.3799072869322,5.405439703235599,1.9904698126279712,-0.09257890889578325,-0.26452573754189074,-0.005810165717228315
304.40000000072536,soft,5.179995189136298,10.590909180767524,8.80270383662641,-1.3922437144880202,-3.006354989117125,2.212182683685402,-5.2488686712613335,-6.952480722127436,11.021888323244855,3.299820593169798,14.491277476799004,13.966108533917739,0.5702431841734626,-0.20726165596533525,0.48867800981411286,0.23919040650491158,37.57483323364342,8.573037889127574,4.2025066927744925,2.130774868871445,-0.09419142591675626,-0.26640310187784927,0.009732863533380584
304.42000000072545,soft,5.5807551865518175,10.672838158284506,9.101389704740948,-1.3869613042695481,-2.896951924212642,2.30920594500991,-5.341495438834152,-6.633142744089422,11.695371074073933,3.1135428596040833,14.095519692452237,13.897826568410323,0.4757628960586753,-0.3118849183444572,0.6064980973295945,0.23926541383738695,39.17215689031291,9.947290918400078,4.01749604800011,0.0,-0.09560500578225588,-0.267439631993621,0.025175314419618434
304.44000000072555,soft,5.921092394702844,10.652028371195597,9.288868747771561,-1.384818948486014,-2.7767590512466356,2.3848529991672294,-5.403755443451411,-6.203672005589284,12.225033272838306,2.9325608017523925,13.641076013883236,13.769998594674611,0.39609909976408775,-0.37901956192457475,0.6345084426455969,0.23958011890136305,40.274920998472105,9.828991932794766,3.231161781615443,0.0,-0.09657569439263108,-0.2678222927663991,0.040575874199760685
304.46000000072564,soft,6.197946211303247,10.541503588267505,9.370113073815403,-1.3822060257619773,-2.643990113168594,2.4414136987270965,-5.438147263630651,-5.719251023238863,12.655153886527266,2.758082597676178,13.142138718788217,13.59345633821816,0.3196127621925693,-0.42091849564915185,0.5919926854245211,0.2401436141290182,40.89271739531914,9.38313852626939,2.5904513116322367,0.0,-0.09695547295811566,-0.26775496810150573,0.05591469882989319
304.48000000072574,soft,6.417674750662769,10.360133016772952,9.361289931315921,-1.3770916254448093,-2.4995773734541515,2.479934416647211,-5.447782657472988,-5.2008645143698775,13.007577184910414,2.591065235232548,12.618509588001299,13.374275223079344,0.24545104894750727,-0.44839000176996224,0.5006507233750277,0.24093767479056197,41.11006093656746,8.78338485769976,2.011805627801185,0.0,-0.09666887876472732,-0.26739268829702917,0.07113253096630907
304.50000000072583,soft,6.588549372642219,10.124557349445558,9.279452232951225,-1.3695550348548493,-2.344986006088609,2.5009816557407074,-5.4365966134066595,-4.660882821178414,13.296014355500521,2.4322443249470656,12.085337637508598,13.120073560161394,0.17492608623499645,-0.4679782299446775,0.37696542921918746,0.24192513140825464,41.020151166487096,8.112056223554827,1.4606151295868104,0.0,-0.09568317697313498,-0.2668357668752075,0.086158809202988
304.52000000072593,soft,6.718546155667591,9.84867876321331,9.140132497461012,-1.3601542894730292,-2.1815231273384033,2.5051589657817965,-5.408720236465602,-4.108281718142613,13.530358570501086,2.282190650928986,11.553517635420702,12.839427133945296,0.10930518566346069,-0.48368552042383073,0.23449599967002902,0.24305636312819062,40.70736271367614,7.412755412384802,0.9295376405655411,0.0,-0.09399255918427812,-0.2661396572721476,0.1009214597172017
304.540000000726,soft,6.81471430016727,9.543862642758903,8.95688434212169,-1.3495382533542963,-2.0103730325616915,2.493182634024076,-5.368006831698807,-3.5496149983164234,13.718062821802713,2.14144761662586,11.030896615670644,12.54085443837984,0.04999443741683405,-0.4980471800974231,0.08442488556286452,0.24427462445716466,40.242864248556586,6.711633174131378,0.42673258058825203,0.0,-0.09160810129397044,-0.26532439346844017,0.11534976082345122
304.5600000007261,soft,6.883026316788481,9.219104601180188,8.741234714100344,-1.3383149715028744,-1.832659579877376,2.465895759521212,-5.317813598065349,-2.9892561785271656,13.86474854219416,2.0106613629475962,10.52309321259954,12.232185774716848,-0.0011460701923361185,-0.5130661193249366,-0.06387963117985117,0.2455204410716946,39.68388491610308,5.992243309576352,0.0,0.0,-0.0885505381883717,-0.2643820515050393,0.12937434800250555
304.5800000007262,soft,6.918318677925291,8.882609632074704,8.503132162954069,-1.331956970450306,-1.6493861063770403,2.423808550646088,-5.275265896853674,-2.4289687185015794,13.974424641022736,1.8778826532498725,10.035388141021643,11.917647054756252,-0.03506898090815853,-0.5409268304707842,-0.20206914554213293,0.24673546612215205,39.050723666377046,5.06271418772394,0.0,0.0,-0.08486360908966037,-0.2632814978903914,0.14292433207012895
304.6000000007263,soft,6.921269598944158,8.544145620603494,8.250578534887026,-1.323456114686733,-1.461942157689026,2.3687034843429755,-5.255329040064788,-1.861260941788471,14.048653994147287,1.7356819075423178,9.560742274913729,11.627387456398331,-0.055370427830788584,-0.5358167211879403,-0.31896570691324977,0.2478665874452102,38.370314357724375,3.9920545153731677,0.0,0.0,-0.08066383965777395,-0.26196237889275614,0.15593051673632752
304.6200000007264,soft,6.908240233221999,8.203247792139042,7.986507110835699,-1.3137777001100626,-1.2710990799819393,2.3016988047098517,-5.237168668830844,-1.2892848204817584,14.094172518399628,1.6045269258116859,9.109380862023375,11.348700591079346,-0.06677169976767518,-0.5475746025584545,-0.41895526884045403,0.24886673368534673,37.728877707693606,3.1588401745711336,0.0,0.0,-0.07601338775869558,-0.26034762073683926,0.1683181891674067
304.6400000007265,soft,6.901224190653756,7.905371698274402,7.633963755471496,-1.3088367980751008,-1.081004920677311,2.22203162675917,-5.217209113127172,-0.7216946425058737,14.118556558823965,1.492622535531975,8.67301532166776,11.075426638119646,-0.06375546146902816,-0.5652668253626382,-0.48288981319429586,0.24969835874953056,37.321348208762906,2.1266402982137205,0.0,0.46252348433053875,-0.07091621472386211,-0.25838979630431375,0.17998972042742972
304.6600000007266,soft,6.885793041682491,7.602692119215892,7.241998934870445,-1.3059807946394557,-0.8873610045366682,2.1329567088767396,-5.185637706588482,-0.14118464224986305,14.120707509687115,1.4121234479985096,8.25403234426745,10.803617389261635,-0.07987680260082036,-0.5266489696223663,-0.5312469589443776,0.2503361549529121,36.76304740432244,0.5755485280373377,0.0,0.9432838603836518,-0.06532830352036807,-0.25606665480008106,0.19083982415181353
304.6800000007267,soft,6.824057397335123,7.22856571651235,6.932972277515923,-1.2956915311616004,-0.6925065990701187,2.0378774042590955,-5.154658243508017,0.48295681037923277,14.104693808804054,1.347763729960771,7.901463897477398,10.47816406749898,-0.04590453436514689,-0.5050277445338296,-0.5868026561830257,0.250760571993578,35.93888062783812,0.0,0.0,1.0408790740183,-0.05935719275816803,-0.2532906335754959,0.20075147841104266
304.7000000007268,soft,6.7710177960347595,6.821360293949142,6.624334632803342,-1.2864953209253738,-0.5034135145610209,1.935326966767244,-5.109227897656948,1.1341722595050752,14.079241703571075,1.3279187058959256,7.5306316399328,10.191389500690793,0.0123174100634197,-0.5396189222868343,-0.6418876743762437,0.25094940928304243,35.19439565223777,0.0,0.0,1.1489971553416465,-0.05294226535940434,-0.24999687690305747,0.20965458617235755
304.7200000007269,soft,6.710055939155026,6.390056857572051,6.316141097692966,-1.2817640989035861,-0.31453681309418285,1.827428904186955,-5.081340001574849,1.8222133517944648,14.046779237553611,1.3235516978720565,7.141517769926103,9.945659206389786,0.06523760373329042,-0.55784476039653,-0.6855645313671769,0.25088124384004185,34.48768613650014,0.0,0.0,0.9968283553848547,-0.04605710157734829,-0.24614974778052284,0.21749181192646166
304.740000000727,soft,6.642049393622293,5.933623615966727,6.0192729970737915,-1.2767701946597019,0.01721067877772174,1.7016429011559406,-5.075629077950302,2.5538683425565827,14.00688646682946,1.33268626345833,6.741358073226941,9.737089395260993,0.10080786015049993,-0.5663520409276445,-0.7227055522377326,0.2505386000701933,33.91801114560162,0.0,0.0,0.5464628584263763,-0.03873044961795295,-0.24170485848248877,0.22420444137691414
304.7600000007271,soft,6.596587824229672,5.442416653893675,5.727731549354807,-1.2626250841241642,0.35864483955977183,1.6031588650622428,-5.061361392907036,3.319780871209216,13.960442738807842,1.384464259785883,6.309817141717269,9.578108631578544,0.15975709999249627,-0.5459895514214502,-0.7265340400068275,0.24990927352563025,33.33383956186481,0.0,0.0,0.08919050913489202,-0.030936923452506218,-0.23661720827294885,0.22974705353988203
304.78000000072717,soft,6.561676515916253,4.891551331457843,5.475045552841293,-1.250658013580778,0.5555763443028111,1.4914135177144168,-5.033160175031439,4.1296531204220415,13.896839545907541,1.4819605454586222,5.860004028045432,9.452909328930442,0.192510809607577,-0.5575308219664199,-0.6633479017334322,0.24899315039038245,33.24187422623887,0.0,0.0,0.0,-0.02258538737958135,-0.23084465541031796,0.2341044798525414
304.80000000072727,soft,6.499241143904665,4.27849266776554,5.124788063989472,-1.2916616010354187,1.3908191119609545,1.9388301156885306,-5.017510446339326,4.9220470529056675,13.858377065885774,1.5982579211805996,5.303628411202181,9.35133043837962,0.1297297083901428,-0.4819396237239508,-0.33699285681685104,0.24783782787215372,32.19876965444791,4.436633970591327,0.0,0.0,-0.013617004377604517,-0.22448578453291482,0.23728379845832717
304.82000000072736,soft,6.353773658987683,3.638866804234847,4.504742201932849,-1.3692488498790736,2.1626582439850197,2.861829988934719,-5.053033542981397,5.6501134041610115,13.766828323782352,1.6282593335922637,4.546530941064681,9.229747138786587,-0.21676340422653792,-0.28109250960275467,0.1008498659928108,0.24657804624045504,28.84705669450383,12.503281019187867,0.0,0.0,-0.004262623420236026,-0.2182429536103823,0.2395063544877024
304.84000000072746,soft,6.125771184493493,2.9230994549698797,3.8236402540772443,-1.4679835664537257,3.034277406206674,3.4612612478653393,-5.083433037526016,6.391383027859854,13.58909020308759,1.6377271133659737,3.7127142784081015,9.047630486532405,-0.3356503706117822,-0.1440919476820929,0.2043698915475341,0.24535668784553047,25.66925555061308,16.446608543042224,0.10832021107007206,0.0,0.005094814473026545,-0.21274661729900637,0.24096190634231082
304.86000000072755,soft,5.839211810842857,2.0986742983144375,3.2379665294657416,-1.5607097971915675,3.9866736812490093,3.867180349818474,-5.088299614334518,7.1803424496989,13.356838104842975,1.6629062631264147,2.831549586841644,8.852358521339504,-0.34931255156103347,-0.06974790469263438,0.2351124440029084,0.24421899693986973,23.466838998618087,18.444262351482266,0.3963601167462713,2.627503225320039,0.014384833467462978,-0.20810332007440555,0.24178427886954207
304.88000000072765,soft,5.545689196225922,1.2188537139979903,2.7026175026042654,-1.656181938397749,4.982026026901576,4.196593871810695,-5.07764881167998,8.004823507292583,13.098946207806545,1.7056164346935005,1.8974650193692806,8.67312083172298,-0.31255180628887025,-0.01048176229552869,0.20541399866841809,0.2431738855723279,21.63896081532327,19.657892739736013,0.6367452395716625,2.82532484133984,0.023585515498748138,-0.20425103680238946,0.24204700850594618
304.90000000072774,soft,5.231982949604315,0.25115083915847763,2.2653775234565647,-1.7276540936712794,5.989264734595315,4.497998350343343,-5.016986575910445,8.836855201027644,12.83199253172311,1.8093376931278777,0.8887997737747475,8.542068273816762,-0.2858956658059529,0.03449906048183027,0.22083428434849406,0.24221230417605535,20.118484759147456,20.87553320164795,0.7108336831114557,2.4133777893955455,0.032787662263124295,-0.20112245347767607,0.24179133878832176
304.92000000072784,soft,4.905020141367469,-0.7273466736769509,1.8341670634667833,-1.811718693052959,7.039014552187091,4.687400940264309,-4.938832096736079,9.682369448073855,12.535513831188066,1.9415270444883135,-0.16353880114516164,8.42754219563296,-0.31848530768008243,0.063808897880133,0.25338435169068396,0.24134145260702328,19.474134766842024,21.97679469013818,0.6645557455553978,2.0323927530368535,0.042035400672186835,-0.19869052453605543,0.2410196889823708
304.94000000072793,soft,4.516109268014045,-1.6968323296624495,1.4906291705391022,-1.8947721864739873,8.10396658795453,4.833908646301226,-4.8269828736487685,10.53760872776935,12.213103832251743,2.1272150527280758,-1.2467517556317689,8.345993042470067,-0.31142980081939364,0.06130556736624489,0.2380128241134728,0.24057194657050765,19.452909732977645,22.179761960680406,0.7975409516314406,1.7969353210756787,0.05135248889795394,-0.19694058366632308,0.23971472648162348
304.96000000072803,soft,4.029488530656435,-2.616611466632956,1.2664570430460074,-1.952030786178852,9.024721119006568,5.12968105068379,-4.684948198801411,11.365871003799782,11.890979666375031,2.375326952850262,-2.3826953704254223,8.326220354909148,-0.3269605237611873,0.05496903142886096,0.32641345844061276,0.23990510614304875,19.603783960211583,23.453173494766407,1.2523854590627075,1.3572664955001759,0.060847474556485655,-0.19587040207220174,0.2378085163730776
304.9800000007281,soft,3.444996511675126,-3.4151144752898714,1.1257570044188363,-2.012258141867331,9.810239743740036,5.448689055273399,-4.553495890182963,12.165456012676758,11.552103753290407,2.6349687995570785,-3.5559604707777646,8.319654815716888,-0.3940595797611886,0.1470054454967358,0.4724641826410384,0.23937720467541476,19.79253788892057,25.09310351507408,0.8819194399659221,1.0568971819125537,0.07047169447918251,-0.19563535963402107,0.23526066383737182
305.0000000007282,soft,2.8334230008223504,-4.066881295606302,1.0622430889859393,-2.095386989206002,10.528318912178948,5.747034991373394,-4.407859082481886,12.946262987641855,11.170524082942865,2.95087293583012,-4.6854510323110645,8.290576885701517,-0.4814106593210693,0.1749174674499394,0.5658569059286792,0.23904119939474475,19.850327637022893,0.0,26.634472863934366,1.0120159002973634,0.08003020776625511,-0.19628737896490317,0.23198534715118893
305.0200000007283,soft,2.361440945649094,-0.6746423853308454,-3.7343139893933532,-0.2962882409010259,11.255424518651532,0.4574360500127259,-4.998496399316484,18.682103648163363,1.5939212452175244,3.2194539852259108,-1.7600779513779896,-1.277218651312097,0.9814673923569349,-1.0771909555754573,-0.9526448459327082,0.23840692790794837,8.854090121686529,27.44849681134841,22.014805750581765,13.311587925835546,0.10283807333965604,-0.19738749703382363,0.2270732140852393
305.0400000007284,soft,1.3990463201913608,-1.7563001797602547,-3.248616609334457,-1.13653497382137,12.039189961768557,1.399888913346265,-4.846257555671096,18.014358273928444,3.4051135360482796,3.940075214122736,-3.93413343875158,1.2349347017783856,-0.3715846732230833,-0.43544494624667174,-0.5498593852822343,0.23739887080489788,6.095693328119293,28.971208135645043,9.998632583899473,14.056011393184367,0.12826047466422907,-0.20070392646522706,0.21902102582627078
305.0600000007285,soft,1.5747771046761665,-1.140888332269112,-3.1715249509174273,-2.1744790257600823,13.05504872260073,2.4066855865140866,-4.868722133272676,17.832573267803365,4.805667885184855,4.407799869793441,-5.199046605894574,3.347746002630533,-0.48125230203098207,0.21846100223287057,-0.5104583896490592,0.2361434244266164,30.99019049196142,47.22520271748064,8.611582569533516,4.124748733426968,0.15244385039043878,-0.2046223966470052,0.20834328586175302
305.0800000007286,soft,1.6317806098818886,-1.473033339754025,-2.7361937384515134,-3.231153126853372,13.92717188493142,3.4108961969638845,-4.859560175630602,17.935079886483877,5.583708199958979,4.7470913919529885,-6.08850992304828,5.200709323561439,-0.41955052294945483,0.3788595720833289,0.15146296288669187,0.23471130696185716,34.134306439361666,47.26075196647535,9.782204785967355,5.552280990508137,0.17383754692028505,-0.20894328172996707,0.19545256038892495
305.1000000007287,soft,1.658573903612965,-1.821562164778423,-2.327813277990785,-4.102480122784315,14.51285456111992,4.355177261427336,-4.757149448622768,17.917402788176656,6.259558202357498,5.149133800119761,-7.08844329248534,6.551775612030992,-0.44002282670592713,0.3852827704907201,0.519732525264516,0.23333271891544283,37.552109807524445,47.318470769126634,15.495538933733517,53.74668270960409,0.1926325299939531,-0.21364714020547224,0.18079984613619757
305.1200000007288,soft,1.6667125241892513,-2.126633504022311,-1.9284632069261365,-4.850673781958431,14.900011957847664,5.14450224656251,-4.602849555566029,17.77484093369295,6.867704239558858,5.454178756784609,-7.518947784578337,7.974073338486674,-0.45208793467659314,0.40313649491460257,0.8689559645776782,0.23216439801964445,40.28495338478658,47.21921090725998,15.590969060260406,56.45388028132494,0.20917398430311568,-0.21906942939099733,0.16475888460147162
305.1400000007289,soft,1.669947870763257,-2.3912633690165848,-1.5423717673403887,-5.483685612535194,15.092506661505928,5.767211506369053,-4.416512190664145,17.506024227974542,7.4192733759502785,5.686422179286929,-7.664623667569483,9.334194890246449,-0.45941449089924313,0.3853784487939613,1.0937197137688868,0.23133768734597676,42.185815147742865,47.03238540779249,16.320496482699216,57.68916589278601,0.2236337355448841,-0.2254358757111431,0.1475840076566686
305.160000000729,soft,1.6249359160757955,-2.603712547095337,-1.1491437230560093,-6.041777061707716,15.182259354011263,6.301942748568774,-4.308159649131012,17.32395936771261,7.758385376297091,5.8869218110685315,-8.474312436503924,9.931012817554512,-0.17060213126344195,0.5624653296161497,1.5092425405881724,0.2309728166613626,43.78187189452236,45.492116521047436,7.524381835426791,2.7442483856637603,0.2358495702405182,-0.2326049664577737,0.12971620658791325
305.1800000007291,soft,1.5961183802968342,-2.798417935327193,-0.7851581558898018,-6.576970836835031,15.256599584787649,6.811577345862951,-4.198345290728549,17.176608400251872,7.907945319803149,6.07779301273812,-9.313825828293318,10.104899917827897,0.012235860975406264,0.6033296330957688,1.5101571466546175,0.2311948666059293,45.31756500387325,43.184975690844624,0.0,14.762069815272149,0.24539453027899372,-0.23969988620733088,0.11156743293454474
305.2000000007292,soft,1.5548387590205262,-2.97476942272886,-0.3154337835988191,-7.132963757271748,15.224682878349835,7.239782250751242,-3.9765663943873344,16.80410669737991,7.740773060948747,6.246249101552664,-10.033269444451886,10.125669832831274,0.12746908740051677,0.7340481616799297,1.2810610309654866,0.2319874093629041,46.60325930246833,39.492113219675126,0.21773864000307863,19.40307960387371,0.2523014706607349,-0.24658967554933228,0.09309083417599914
305.22000000072927,soft,1.5212641740385875,-3.0812774417855344,0.1948971756670665,-7.657821830599525,15.1426596078125,7.621687247449144,-3.757096123109387,16.15742177938677,7.644041863287907,6.383184193249001,-10.522849067772977,10.15346521318479,0.1824889965424339,0.8287445522415356,1.1607569132102071,0.233278698946835,47.67290123460641,37.31744032519036,2.1618221561194786,21.093224540147297,0.25647323290238205,-0.253231745353989,0.07428965306654078
305.24000000072937,soft,1.511471649156045,-3.1537643073417874,0.5123790376704644,-8.020971714638623,15.04150750494772,7.957917173213441,-3.5882864060387347,15.573095396849975,7.842203459491918,6.500541718257386,-10.841326107221285,10.307074547214237,0.22951890576579345,0.7910482208092756,1.0425777288907625,0.23501116735388183,48.24808527377254,36.86959656642144,5.115232553982915,20.952289009195812,0.2582840632040745,-0.259381003547342,0.05548215718733987
305.26000000072946,soft,1.4991834777317785,-3.1988755382295606,0.805136148986521,-8.240222651738135,14.909929183066579,8.221480598307478,-3.4596011395608306,15.141706335257126,8.2027898999684,6.589549454268676,-10.897120207644623,10.46267428568975,0.2720909739164307,0.6935694490861339,0.9346482271640674,0.23714942781602458,47.89320477386919,37.25480494498055,5.124597274447358,18.418163515497277,0.25817910010668116,-0.2647572503101193,0.03693101668981484
305.28000000072956,soft,1.3962939898989337,-3.223923083352374,1.0951095545213048,-7.892594282342451,14.276097600904595,8.017244304801785,-3.429447434078341,14.796641784468864,8.547174622444384,6.541864727600652,-10.62879641777924,10.578045479054541,0.3568537337330005,0.5207265737366058,0.4890324492468574,0.23963207518398452,43.50312363975808,37.699155694845714,4.518931576194588,17.343705927936494,0.2562898788524104,-0.2690050732212711,0.01861749348461855
305.30000000072965,soft,1.2621728473374696,-3.224289986747844,1.367913492729297,-7.129306712494938,12.991356507576366,7.714544509765769,-3.5551588851156293,14.536355206355765,8.892224565307384,6.344320446588736,-9.93569870170726,10.613689256693664,0.42141884216960096,0.28757254017092415,-0.1276357096123682,0.24227168019350656,37.75112270398308,38.492900400521954,3.5149549693123023,15.937270545854638,0.25229442403738195,-0.2713181776183438,4.340019125525091e-05
