time,terrain,torque_0,torque_1,torque_2,torque_3,torque_4,torque_5,torque_6,torque_7,torque_8,torque_9,torque_10,torque_11,accel_x,accel_y,accel_z,height,contact_0,contact_1,contact_2,contact_3,roll,pitch,yaw
100.02199999994829,sand,-0.9818544633964914,12.968708125854427,1.863090917616459,-1.1884032491641665,0.20825389271389483,-4.648165201900902,-0.2211225084166074,-3.457289568484468,-3.7237596243397633,3.723535955604755,11.511664267729794,-0.7546670581165511,0.5442762737015046,-0.4640871668638018,-5.402673338459157,0.30175705304199035,22.079553509433975,24.364573594265423,18.017415345307157,0.0,-0.1526572053725875,-0.0486660144816646,-0.18407725009347128
100.04199999994825,sand,-0.5885910865352535,12.23495142402874,2.0238476954654523,-0.9176632042427019,-0.5310447327982054,-4.035691841750358,-0.657281326486125,-4.9939743951104,-2.6927367653417082,3.5577671857504294,11.185306476166328,-0.17195856498702966,0.10217041317928567,-0.46472760834020693,-4.816499199185567,0.2979013994708344,21.96100746749336,32.814874098959535,19.26245784599323,0.0,-0.16055605401214218,-0.06110028887825908,-0.17930806900517293
100.0619999999482,sand,0.027575357988187665,13.043235494480005,3.2110844705729935,-0.8957319809807867,-0.9078746553997716,-3.498632249023032,-1.1060615226380328,-7.4689064217016226,-1.1794979909824956,3.7731592553238666,11.95806273669652,1.3548283217269645,-0.30975498050893235,-0.5315743287751514,-2.900287025131718,0.2921990512021009,27.04122875557254,49.255918011528074,27.52310716945712,0.0,-0.1675677028126954,-0.07412014377820389,-0.17196529606042
100.08199999994815,sand,0.842725301977141,15.218066928049025,5.409633920825096,-1.0153287322208164,-1.124306992089882,-2.9848645277689236,-1.629729442151976,-10.437425351653294,0.9400974129541844,3.954289581657877,12.993263045640578,3.8286625184551255,-0.7111329412204157,-0.5385539511459045,0.26509285860795223,0.2854900591535376,38.01052257032726,70.98351028801689,41.91804879766571,0.0,-0.17336316143480035,-0.08377118446061192,-0.16205209095688658
100.1019999999481,sand,2.0044594419932964,17.842281347176005,8.020845315363031,-1.261867502543858,-1.494661992357183,-2.5925449697232414,-2.0598722729112473,-11.856651554236517,2.6473141059749086,4.073122723266808,14.271671645722577,5.482543228466351,-0.23357731180663605,-0.9502562248761991,1.8265806865217509,0.2789128586042092,51.081646057358775,77.61071259850634,44.433085412500425,0.0,-0.17748126310782975,-0.08781041084209544,-0.15038705406237202
100.12199999994806,sand,2.8952400424721274,19.207659631757704,9.59154642520586,-1.4046795347629002,-1.8745334251787842,-2.2120061569676626,-2.5137008328709203,-12.622069873923683,3.4254596311228305,4.026859336188109,14.742479722776626,6.46474892537694,0.008128286287818972,-1.0752226850295783,2.1653547777629,0.27304423356591956,57.279306338195376,76.52370770329617,45.29870091371823,0.0,-0.1797545172759266,-0.08980313407926781,-0.13809860046402836
100.14199999994801,sand,3.247350876009281,19.50052550906186,10.151307688727233,-1.425122533103062,-2.160474827655799,-1.7995771398804603,-2.8737273533487957,-13.167702923102775,4.253301857489764,3.990515611396349,14.830900077245527,7.56563291882347,0.1459699474077993,-0.8881840143406088,2.2804761838541876,0.26802278487415554,57.44322706835356,74.89371492850506,48.94515158226278,0.0,-0.18030036739871166,-0.09235066105140359,-0.12595823490167915
100.16199999994797,sand,3.3283541137172032,19.31012014376756,10.39892354394641,-1.4299311840860887,-2.3975173571452286,-1.3997902251037226,-3.121979532233418,-12.995864136323327,5.016360425066441,3.986424236403867,14.83596913079575,8.691465230356041,0.2965771749145536,-0.6138896095304789,2.234494897881759,0.26389466362810277,56.3082866244607,71.56326565694944,52.88205317402916,0.0,-0.1793059466980988,-0.09578294857376651,-0.11429998799182933
100.18199999994792,sand,3.263946268781449,18.849572683224267,10.484758706290283,-1.4320741756930262,-2.598770517121796,-1.020045490484546,-3.248222895579948,-12.532702715324653,5.689237697310534,3.9806192551289,14.714394997261135,9.744413885693948,0.4227792119946688,-0.30863384639672076,2.0668405619265298,0.2606398898611976,54.44292425311731,67.57457042292457,56.546828255229,0.0,-0.1771478598795787,-0.10022126919362072,-0.10335592042274291
100.20199999994787,sand,3.127068896522779,18.268601113842,10.490467709486268,-1.4316838610649603,-2.7585165101909412,-0.6574168420029256,-3.28506261888496,-12.002161990855496,6.332990465872483,3.9702768410623888,14.516437163145644,10.697672822800346,0.49983185041220196,-0.0278604020441067,1.868038029411697,0.25819272301304197,52.252426046847205,63.990048148820385,59.70224241866945,0.0,-0.17429776337942407,-0.10570820815184098,-0.09332201179544061
100.22199999994783,sand,2.9691968396727955,17.654708072745557,10.469983015661013,-1.428535701404131,-2.8864621502108623,-0.019943381715138514,-3.2698528435824925,-11.453069644991935,6.946105083985024,3.9553893224900403,14.282203244409128,11.52772236146902,0.5489434519662455,0.21220360850793357,1.6588544476314397,0.2564737508647268,50.04840526584675,60.86708025684805,62.11839994771444,0.0,-0.17118757501816945,-0.11207974155807143,-0.0842804369832359
100.24199999994778,sand,2.8154271063625367,17.03845194010455,10.438269613581165,-1.4259132230177758,-2.9747909728996547,0.31407684877060027,-3.2230917125395573,-10.899659241888235,7.575384295927642,3.9357307430172996,14.011332362365419,12.232076948464757,0.5854381978224298,0.41483363367431736,1.410777632431825,0.2553993938865629,47.940155650174795,57.86148688752968,63.84576473063668,0.0,-0.16819038811613532,-0.11913866433749212,-0.07623001069309929
100.26199999994773,sand,2.6387476026197305,16.426257514485357,10.394092996284094,-1.422917377923249,-3.0387760521030156,0.6195883273251805,-3.1530284182468282,-10.286056988315059,8.28560265260458,3.8898503523540513,13.684964894529813,12.837568260860941,0.6121197758750065,0.5912102825796592,1.1628067952665562,0.2548712446813399,45.90597900993296,54.97866438366727,65.20937158678376,0.0,-0.16572088395517748,-0.1267628109899772,-0.06918274061068433
100.28199999994769,sand,2.476123550615302,15.844161215342242,10.410224224347763,-1.4177773973733152,-3.071219283292532,0.9054882112037039,-3.09917887393826,-9.753648841643585,8.829982063986915,3.836915052242012,13.350802153499913,13.331398764813553,0.5810157390898429,0.7084662953163042,0.9490919636594736,0.25479389147038034,43.94799255973668,53.39232851933742,65.85716482359399,0.0,-0.16415198978148415,-0.1347928867023614,-0.0631432336948367
100.30199999994764,sand,2.3559742222527627,15.26549805552423,10.568206968645027,-1.4104583377606414,-3.0798855680133936,1.1684583012107947,-3.061112468163944,-9.257136298232856,9.386096075878893,3.793291254120076,13.043761622737852,13.710411851458634,0.5055850720995103,0.7416104051063044,0.7557164618677507,0.2550822175148436,42.31407889092416,52.44281904582639,65.54208299159605,0.0,-0.16361785517163602,-0.1429119877804816,-0.057979726613382236
100.3219999999476,sand,2.308880891617817,14.833989405783463,10.597733173180096,-1.4040478972838721,-3.0691604685993292,1.402695640204982,-3.044433334306338,-8.78040270344084,9.933809343469727,3.755659185827487,12.698105150164775,14.013957218739298,0.41455414571312,0.7238829172148362,0.6150132457225188,0.25566207512715644,41.386690034677585,51.912658802616896,64.9486229094742,0.0,-0.16407679971311107,-0.15093396158713754,-0.05343518177255134
100.34199999994755,sand,2.327845971357783,14.483201656055268,10.661064901631368,-1.3978215133020828,-3.0363625269785848,1.6112709665352671,-3.0449001952948693,-8.306094950529255,10.458518970290045,3.691786206645821,12.318455402164581,14.226110444309159,0.3461559857799141,0.7107732401677483,0.5271238657209807,0.2564805117228633,40.85252601198612,51.64037927905468,64.45761670034005,0.0,-0.16550541268795918,-0.15875739157377403,-0.04921288367321796
100.3619999999475,sand,2.3894956456464875,14.176458096424327,10.726283356629889,-1.3918430888017324,-2.9839584921028264,1.7951156552261818,-3.0497781081362474,-7.837077075428894,10.960312627949936,3.6095236239569792,11.928135163149843,14.33049758635899,0.29811126883160227,0.6983569048466332,0.4565612471616072,0.2575028552081707,40.510973666870754,51.6073080851493,63.80245565556741,0.0,-0.1678830955949898,-0.1662787815192912,-0.045093883595023594
100.38199999994745,sand,2.48298514602445,13.889502054779065,10.773159983672278,-1.3859080377982729,-2.9149669510550034,1.9548593816235904,-3.0558159999152426,-7.374071007286233,11.444006405711118,3.5194978973670787,11.53600350645613,14.325455113950216,0.25480436453977257,0.6719925184290173,0.3839924626005853,0.2587008920633731,40.25238125582683,51.81825462707901,62.78705114374034,0.0,-0.17115620258223826,-0.17342683692755623,-0.04095558379574701
100.4019999999474,sand,2.6203649084312013,13.601456303631887,10.785258802316912,-1.3737297411907088,-2.8363152272749916,2.091563655631912,-3.068788737847699,-6.923063224314779,11.926397871036977,3.441988581040958,11.076920470417935,14.323087628293814,0.1940250863801648,0.5687210164010222,0.2397959385437524,0.2600391362361314,40.013934124408784,52.370927923726285,60.364858493044295,0.0,-0.17520404625679056,-0.18019941201958148,-0.03669152047398385
100.42199999994736,sand,2.7816350340721288,13.329599753211035,10.77655995352987,-1.3634034412299505,-2.7321276512985353,2.2065528344531344,-3.08102395552214,-6.466593013158564,12.40310696264051,3.335107316317388,10.652706062538872,14.158913798820747,0.12295126050424303,0.5210783689853612,0.18661530314520958,0.261470893709372,39.85118839434597,53.165921013771424,58.89062355333211,0.0,-0.17986238246890165,-0.1866078053915727,-0.03219509690024513
100.44199999994731,sand,2.9652226999031583,13.074505742041751,10.747921557992422,-1.3534502916936972,-2.6172850992240715,2.2986740894985225,-3.092960379608331,-6.0121325311739255,12.871928144270987,3.225090943716583,10.255038567982002,13.922087437157545,0.0527609761129181,0.45797184884794895,0.13648343667682256,0.26297290663847356,39.751920053637086,54.17699905211419,57.20650534911478,0.0,-0.18503989734648066,-0.192551747509079,-0.02742598893654847
100.46199999994727,sand,3.885195965290413,13.313328639469452,11.191827488273852,-1.1590504149311986,-2.5888612257111827,2.336390565114681,-3.31638595991234,-6.641770514774738,12.596354319159865,3.342504728795831,10.96054699369788,12.460560020325264,0.48601354143902387,-0.3286811811711677,-0.596805416247577,0.2652509439524396,42.733499923639144,52.42174567755039,44.8810552091735,0.0,-0.18661271943860425,-0.19318878747919885,-0.021157716051584195
100.48199999994722,sand,4.0129099143889295,12.626829434887544,10.765971999825062,-1.2439625571898638,-2.4715952571747026,2.378609717408514,-3.1995347319862595,-5.583581552049851,12.78667919349057,2.86440372591634,9.801506427316887,12.211366925292978,1.267208221302864,-0.9775883069649198,2.2351079024394735,0.26768842870164367,41.23804104869038,49.29315645164878,45.772676405841345,45.204629342857515,-0.18767151834877172,-0.19356082728727608,-0.013230708083994376
100.50199999994717,sand,4.13596727542253,12.170662631538876,10.515206447714302,-1.2231392916743444,-2.260986025445338,2.4309521443230135,-3.1937587277428188,-5.171989814516869,12.931720671438356,2.6275610466057273,9.09190512799607,12.084031099052838,0.1245235113304174,0.09671395932390306,-0.7630667977287665,0.27003048356880927,40.00266469408251,51.41700049163935,46.78344781420993,0.0,-0.18877561851049934,-0.19417015848630365,-0.004827859992885358
100.52199999994713,sand,4.266777231148722,11.82635050109673,10.329125211470336,-1.2330114583606169,-2.071384148496276,2.457289389040773,-3.197276993408358,-4.7417717262785954,13.292730803111063,2.4357787239071538,8.5418741816573,11.843129845403471,-0.03269001173541252,0.10345687600240806,-0.6713292325306627,0.27220603056109116,39.639485383326694,53.28910469321994,46.40019697850913,0.0,-0.19016843489952906,-0.19459957116407778,0.0034941762274711
100.54199999994708,sand,4.521057468791066,11.604326131900262,10.238066229195828,-1.2183688616324315,-1.890274757625046,2.459088221203217,-3.229172653627348,-4.422203177610555,13.768702281472436,2.305269868340408,8.178456712426058,11.426152877868853,-0.1698340781163834,-0.046074536672617114,-0.5587865709729652,0.2742085645621671,39.98634427561008,56.23117423966458,44.53188675373737,0.0,-0.19155478312182803,-0.19446746821080654,0.0116901657978188
100.56199999994703,sand,4.803794194386993,11.396431749602648,10.141347401905291,-1.2325739729853196,-1.6981085687538529,2.4439441758156715,-3.2560326767823127,-4.077268725958652,14.307427381048662,2.163372153989733,7.797108723726337,11.005209102380023,-0.33396580345725424,-0.19800321620211805,-0.3940683042718915,0.2759932296671189,40.44236724199559,59.64632322921186,42.926207358648895,0.0,-0.19298299098525692,-0.19400671197745153,0.019832625792366405
100.58199999994699,sand,5.1578797285251285,11.244362680253975,10.079227164948744,-1.227659428462926,-1.511184525545442,2.4092612419727546,-3.278268254249684,-3.7742855430007936,14.89519527879727,2.018890985055967,7.527459116826661,10.496879280108537,-0.47401950222374273,-0.4237806573875034,-0.23601437872720257,0.2776269487166513,41.196092430795034,63.46634669483827,40.45566635362214,0.0,-0.19389670461918682,-0.19273979632849156,0.02816035632754787
100.60199999994694,sand,5.545943590205989,11.094545810473068,10.004059893479155,-1.220999769718203,-1.3258093729226905,2.358076177838236,-3.2762294126571576,-3.4918802625827112,15.437002199106443,1.8383648057611224,7.290968717224176,9.932199207414529,-0.5928708731134951,-0.6692082532131172,-0.12247090736720982,0.2791701343869918,41.9391224789233,67.06718472263726,37.618551952158064,0.0,-0.193875427373102,-0.19043045991163474,0.03700418358069939
100.6219999999469,sand,5.937810792605131,10.975861334791826,9.814312724710245,-1.2151050027912944,-1.1381202921771814,2.2921683661540806,-3.2357341832813815,-3.234320337681936,15.908039868840973,1.6235088414189933,7.045356458386635,9.359177806849905,-0.6924615954170119,-0.9136743140401965,-0.007611884880172469,0.280669276530313,42.93504323873205,70.3869846732094,34.85502509554883,0.0,-0.19253627776085672,-0.18696870625690562,0.04666310854349368
100.64199999994685,sand,6.283787513568056,10.838348584254105,9.589653330935496,-1.2095562494776664,-0.9440944253006105,2.2145874831326795,-3.199480358219516,-2.9802380811085873,16.297366756561225,1.3475983287238127,6.778081725481064,8.793720678855852,-0.7676321961038467,-1.1484037938672436,0.050523219774542605,0.2821669698145889,43.57033745873182,73.32716347915273,32.232886363280876,0.0,-0.1896097853906114,-0.18232453137333504,0.05733916637227488
100.6619999999468,sand,6.523154209185983,10.59610687781839,9.414361221279087,-1.2045215630635882,-0.7473689255839331,2.129094264471232,-3.148642034718184,-2.591476827778812,16.565666661264462,1.0326516108319774,6.491125023286677,8.246780611218897,-0.7632555784626824,-1.327730258699548,0.023266990664912966,0.28368266871756603,43.5829040330924,75.40532765965352,29.816225648841648,0.0,-0.18498574220021763,-0.1764329026327814,0.06912085917721386
100.68199999994675,sand,6.660303444616067,10.21064244454156,9.120951526024351,-1.2037318196131714,-0.5645361780849094,2.0288466439965527,-3.0007031826500703,-1.7834832825809608,16.657132879377436,0.8146793593496804,6.125758646545489,7.756104070690037,-0.5811680178336636,-1.3933497164196635,-0.14188123988486062,0.2851990868670051,42.848534389364204,75.6923565505525,28.184900398408406,0.0,-0.17838912465527407,-0.16943478289544348,0.08183140342753677
100.70199999994671,sand,6.632873799589783,9.644650096899579,8.680833282707331,-1.2051831471901013,-0.3866687603598419,1.9199661828241208,-2.8539036509064966,-0.7518299381113867,16.525879618256397,0.676264204446728,5.67141345567077,7.379172033978162,-0.3425187403503974,-1.3474605605211223,-0.38627248917730767,0.286647679841068,41.22701104547829,74.39239018006282,27.831091965193,0.0,-0.16972447754638045,-0.16180904868228038,0.09488451570048578
100.72199999994666,sand,6.483421430437843,8.998407913879904,8.180533822143621,-1.2057330791988228,-0.19243088208339687,1.8136349332002553,-2.7113626480569835,0.2690757325309452,16.382569728091724,0.6073005349446787,5.201799260885891,7.136908875967106,-0.1553175644987016,-1.2540484515358539,-0.5323653377844593,0.28793827845761466,39.23773838255238,73.28131074813156,28.907008996927576,0.0,-0.15917216015879845,-0.15387727860922346,0.10756079106313626
100.74199999994661,sand,6.257052244799673,8.368019025514261,7.705076433165762,-1.2066637098243762,0.19600222775468812,1.691111745380046,-2.588645437844991,1.2938676136455993,16.271409157924637,0.6036415684833623,4.838701964463456,6.865228122480823,0.019368140452104856,-1.1439810685962655,-0.5940152244263044,0.2890190759347035,37.28040797262398,72.39363714223647,31.08345914990659,0.0,-0.14705410349197126,-0.14553422055310417,0.11923256766581773
100.76199999994657,sand,6.004873915659971,7.760883438753003,7.265593331902587,-1.2067381178598637,0.5041644487285105,1.5966842065896687,-2.4975816763756447,2.2971657679738193,16.19700099467829,0.6725357403786891,4.403692279185311,6.761558782611632,0.19328675651635452,-1.0835667074313051,-0.6513500161394626,0.2898641649747566,35.46673950444324,71.80454951563021,32.61979200890006,0.0,-0.13369510223765568,-0.1365980249442088,0.12943573967131003
100.78199999994652,sand,5.7916344988539405,7.189761569117793,6.869621447555567,-1.2058275562142053,0.6986513919072391,1.4872542060758347,-2.428108955062506,3.28463310872749,16.14653789916042,0.7942531145209342,3.9762703832347026,6.634531840969071,0.33379348711056944,-1.0565185562541812,-0.7084183619559444,0.2904489420906442,33.71982212929263,71.38819496415333,33.78326947385964,0.0,-0.11928810915201396,-0.12696325735912004,0.13789649878325858
100.80199999994647,sand,5.697220818973206,6.66626324700763,6.529441444085648,-1.2041272191729429,0.8835388366149357,1.3754343791507493,-2.3701339633128624,4.262124835174458,16.103617660030935,0.967631156023475,3.522190229721916,6.516185007241789,0.47005135907372625,-1.0604769327594838,-0.7514127784879169,0.2907507726574589,32.29956299606851,71.040523310661,35.01010892654723,0.0,-0.10384073086018696,-0.11653972378120186,0.14448296379710476
100.82199999994643,sand,5.390072055014195,6.120386775129511,6.133943303333018,-0.6268960331298812,2.1967159254802073,3.4260586188089066,-2.5951320303694745,5.04823184895504,16.171448220761363,0.9607721023033877,2.9218031947991085,6.411883038153196,-0.08575255785304207,-0.4991738927363075,0.522931781106139,0.2907736839089064,29.614883594916588,24.560270428220036,72.35315362855525,36.79169163354796,-0.08782192476199328,-0.10549889297790041,0.14906226971885272
100.84199999994638,sand,4.580420089136393,4.946684964707866,4.7559629822599865,-0.49801915460164614,3.0689023318773563,7.103113652708095,-3.244432987975653,5.101291155579384,16.21611265651319,0.3626823899442828,1.5080077338740379,5.9900890825328,-2.148138225283258,0.7193821954010503,2.5626869093344875,0.29108866787887033,19.77176936633469,57.97195411644597,73.66107752938767,39.057544710900785,-0.07400368597891302,-0.09774458125070865,0.1520210525948711
100.86199999994633,sand,3.7006765126978767,3.419704103036697,3.081464148394856,-0.3440767142587472,3.808738063598801,7.210138833147786,-3.142386193166293,5.874468338083309,15.46042941696003,0.3470305547584017,0.4256920919895524,5.36391443759601,-1.8603771308016857,0.7764482766252051,1.1195691555978893,0.2922912993455525,11.202278511887075,49.5643858959618,67.59107341062926,38.39536343440545,-0.06163777982097713,-0.09464523738540181,0.154576606702392
100.88199999994629,sand,2.9276786104442314,2.1726792986907695,2.0223966309041312,-0.11392409832063555,5.2379998313712886,6.11602550267947,-2.876194365725395,7.004175691805272,14.838048750758372,0.5464673919772999,-0.4584145488395759,4.963388291733365,-0.7540825185406119,0.4994269515897414,-0.5034212545669797,0.2938716145941002,6.467253476353509,33.63589369805805,62.83765335677963,38.90403269183962,-0.04940399463985044,-0.09383395502037475,0.156895362990638
100.90199999994624,sand,2.0074236970789703,0.8605672715168566,0.6719769994223852,0.14500652650314794,6.539589901274389,6.066766808081862,-2.6345387575719785,8.334901485097753,14.604303745020221,0.7295722904916513,-1.2991886945893136,4.836446494984196,-0.34926092401558145,0.6291894220607339,-1.1023651280503606,0.29520765588509396,30.48388257260881,60.774265495620824,41.26303511666512,0.0,-0.03735983046377074,-0.0931867033099563,0.15899316591196763
100.9219999999462,sand,1.8475341427452046,0.43766746590748995,0.4881738735803196,0.12374508676411311,7.665134053860481,6.377058410274203,-2.6042624130396814,9.439553215077874,14.673947591081673,0.7699892998960584,-2.3103789148905753,4.81480585534197,-0.14661464244401795,0.6942292905591884,-0.7692773430491479,0.2961246535403055,30.81222390924887,61.52499985540565,44.85149787947736,0.0,-0.02613046836495958,-0.09216592294220091,0.16079241811064449
100.94199999994615,sand,1.7911332246878144,-0.1597493215130432,0.35820908577669996,-0.02906639454124471,8.74641704331064,6.724994216037105,-2.626633239476407,10.40560968674712,14.836520898652733,0.8104932019247566,-3.380279228104911,4.766757868242754,-0.021797041449975706,0.7162068696377992,-0.4285118943242764,0.2967470525179112,31.29215133502165,63.01306588208253,47.973615253214085,0.0,-0.016171754262593433,-0.0911358086708125,0.1619542305356244
100.9619999999461,sand,1.7364691888224018,-0.49144670116693034,0.2521069073272414,-0.19283944721472246,9.786880334462792,6.9930973654123925,-2.6625115558095875,11.317931968654937,14.969299879571608,0.8386749143495361,-4.539150662356511,4.6970061768566715,0.13324423200494034,0.6894260933552405,-0.22268507447525826,0.29720262037942174,30.950351978443727,64.18685267259114,50.17552319383288,0.0,-0.007476191956185191,-0.09018775399545058,0.1624891201627205
100.98199999994605,sand,1.6885905659679064,-0.7787579483824847,0.1872932485018447,-0.35558385113133556,10.7777026877117,7.21664814868326,-2.693829791313829,12.203387519476797,15.048604704038222,0.876788803319584,-5.710547697989721,4.545850103127588,0.23026766304509347,0.6767168325333365,-0.0693399859676711,0.29757421922732447,30.378275668361187,64.79067168217642,52.38693904098945,0.0,8.008439213692055e-05,-0.08936057065125337,0.16248543113352373
101.00199999994601,sand,1.6543329355651941,-1.0426966401024211,0.15121947839387906,-0.4381448677305651,11.754992973224633,7.408291878346654,-2.6341622302445957,13.116738103569006,15.03459692155536,1.027884291627973,-6.852998197665407,4.364232271846079,0.27405027440740515,0.6861805161226036,0.03422815069418864,0.29792040089632005,30.559688334896638,64.43444179468085,54.20612602747119,0.0,0.006798650559763604,-0.08848590174398512,0.1619420475504123
101.02199999994596,sand,1.3315007443481257,0.41766658186403216,-4.204850431290824,-0.35651222634673013,10.798529301725297,-0.1641352408261323,-2.684541689486076,16.156069166964503,2.3201962115836583,1.6116683305044313,-2.9902319623384495,-4.390318826465906,1.0053449441301998,0.3084277775336992,-5.542041625500899,0.2964075184889509,15.914019123139354,28.42121341692563,18.84057105736187,0.0,0.014546699374346817,-0.09520169749859474,0.15976619226403857
101.04199999994592,sand,1.1047847191199844,-0.10471893902961038,-3.6405686463503475,-0.5119487870677875,10.17930778154403,0.1354719965115958,-2.705511743840375,15.979101850173963,3.004431467128427,2.07807959172963,-4.7008291485172915,-3.3374751164720777,0.5985383240342295,0.44632513943148283,-4.827371903363428,0.29266432419475524,15.903218577139512,31.020744483546164,27.690607751549596,0.0,0.02223684823485822,-0.10744610439676458,0.15504711068888863
101.06199999994587,sand,1.1052090070050458,-0.7006978866791351,-3.163080805333057,-0.9546753293762409,10.560358115431463,1.1006562662711268,-2.8473041181113126,16.91037200810619,5.365092963200018,2.6820429025998545,-6.43533510099285,-2.094693994185544,0.06907565804898168,0.14172715179857304,-2.8000363525118126,0.28707096669668675,19.102338148130798,48.82179855927961,37.370418433243614,0.0,0.029021583554532215,-0.12151347738945215,0.14741634997525596
101.08199999994582,sand,1.189756870455567,-0.922071322435408,-2.6847512925893025,-1.2971592844807063,11.815989657491407,2.6546927502216295,-2.981505930416999,17.82800818459802,8.793830710566723,3.224364557178912,-8.053842148230075,-0.6091469288512101,-0.4459032019573922,-0.2386312165002398,-0.31371947767842123,0.28046968421899576,25.312071508263845,68.15009427403032,48.83221461028567,0.0,0.035604513591247375,-0.13323041010608097,0.13792227252515943
101.10199999994578,sand,1.2355605367816471,-1.337778514733234,-2.28921636053731,-2.189931077796967,13.539029163488562,4.681297913285535,-3.270691693903071,19.256386367869275,9.996455872104654,3.7798031190220898,-9.98493499686342,1.1403747934079718,-0.3143342722825752,0.4405840191312477,1.164622760274789,0.27377356098535166,34.78853344116986,68.21005630969596,60.832509026480196,0.0,0.041259908999810115,-0.14020461664843478,0.12723120777991495
101.12199999994573,sand,1.4356654191016371,-1.7268469381515326,-1.9488423276329634,-3.3973995407024105,15.196617456650308,6.782932065388662,-3.4245653351251644,19.973696668316975,10.838103538048998,4.311385105689453,-11.295134413257976,2.537536826105711,-0.08157285175703242,0.9012970951089287,2.1209168606779074,0.2675629804621289,44.521795294512195,68.77934544375864,64.92839946410534,0.0,0.04498319939559807,-0.14419061683474743,0.1149929323549304
101.14199999994568,sand,1.5664706153483068,-2.030710001018514,-1.590627059455291,-4.119304213702488,16.01063784492278,8.013850336109739,-3.3986152162136336,20.1067897768339,11.845556553599812,4.7225768613613095,-11.588338826332894,3.5557879418916682,0.09268529988946379,0.8594523672773223,2.489821704394103,0.2621948994038148,48.318538945878565,71.75765118252633,64.18050215496535,0.0,0.04728586387878548,-0.14782685707539686,0.10216299395234832
101.16199999994564,sand,1.5935731610950756,-2.289164092440422,-1.2203531317185998,-4.173211208986903,15.963394767101093,8.354980884051892,-3.344221434206338,19.98345143368342,12.883882557648308,4.884180628736083,-11.286527416274915,4.336887395485488,0.2455836163433099,0.5255790313222911,2.3885156652903707,0.2577968215253549,46.971906892185444,75.32805808335871,60.88728260319296,0.0,0.04861981210443948,-0.1523879469517619,0.08975351219195572
101.18199999994559,sand,1.5809934624341075,-2.502938262383058,-0.8566905587437901,-3.9411987117711167,15.493681956143215,8.375216259428385,-3.295768847416183,19.752788566586204,13.85310073924577,4.868539865951476,-10.790942900278075,5.027705212567649,0.32177075222610296,0.15963033788105493,2.1755804906420515,0.25433134449040695,44.40733335524797,78.53396521922855,57.329737082027755,0.0,0.04940364583208162,-0.15810160450839958,0.07820565861049532
101.20199999994554,sand,1.5672511449411928,-2.683792046562589,-0.37376645264631536,-3.6737221130979343,14.930057444383571,8.34648025374948,-3.2376606082636026,19.4706629793357,14.69924200634073,4.776893674285157,-10.26561008982162,5.681403298776778,0.35645254763239664,-0.14594078938014218,1.9410556906334577,0.251715090504801,41.97311184983244,80.94012405443728,54.233175262021824,0.0,0.0501115669262412,-0.16477975511224574,0.06762871035559694
101.2219999999455,sand,1.541136185587587,-2.8121121886909863,0.12028627750637477,-3.4377632611825364,14.385255145170827,8.33158029246447,-3.164484932696263,19.14610088961514,15.411863222423243,4.663787029633959,-9.761102541972448,6.316760073853164,0.3683202878293788,-0.39441784284424286,1.7344808706792059,0.24985851108430598,39.8821278031096,82.48565148289487,51.77485790010228,0.0,0.05118790843664759,-0.172165788483373,0.05802632367678995
101.24199999994545,sand,1.5131083521015234,-2.916317821954644,0.4388932715592775,-3.2621085226298194,13.873609279657014,8.333225796342912,-3.1278256603791714,18.78493488327077,16.001306304049578,4.524718143560222,-9.274337231170758,6.929370962589572,0.3596181699680815,-0.5754936432620917,1.5192422611522753,0.2486778040707947,38.13514849050256,83.22620383231855,49.799968472727954,0.0,0.05289853932913421,-0.1800543522532751,0.049367607895003975
101.2619999999454,sand,1.4981307080058948,-2.9913583275540985,0.7316090033851661,-3.103872886052364,13.380811864314246,8.333024744408313,-3.101154378011845,18.372115615784637,16.495474693853176,4.3582981778824434,-8.750645213433208,7.731188305707223,0.3535223533944262,-0.7268512277167184,1.2609727307669272,0.24808161941749082,36.569833394428684,83.39567471905126,47.52185330526607,0.0,0.055454745162576244,-0.18832011106937363,0.041647613406297766
101.28199999994536,sand,1.4793473240226356,-3.034907191955101,1.0029080433813982,-2.9693126312640996,12.932193170932166,8.34112568098686,-3.0731080534420254,17.926287725936817,16.900992349296697,4.22385697591365,-8.26527364998734,8.284623297989324,0.2967805268390423,-0.7995481673899935,1.0496885466612396,0.2479735546544801,35.27265521465457,82.98436847644928,46.29674489782022,0.0,0.059106874370372056,-0.19689200548678118,0.03486149919350217
101.30199999994531,sand,1.4446162147711843,-3.05121183898955,1.2549826366132688,-2.8730913163923626,12.455871388254057,8.55854080526597,-3.023146038503375,17.477200366239366,17.20334904437859,4.133724547240281,-7.796238598711232,8.85073515418776,0.2192721605622868,-0.838434627442693,0.8386175751696096,0.2482685369368998,33.80043242348525,82.03382853015627,45.663895244017326,0.0,0.06401536552729853,-0.20557793216139952,0.028836691508373893
101.32199999994526,sand,1.4189220695168978,-3.0483567407562244,1.4788550549838497,-2.855286093662587,12.120527662319772,8.643668952982845,-2.9692005705451967,17.008053171904244,17.405131526775648,4.0687407586246875,-7.340074084469066,9.404459612807784,0.15743046156009488,-0.8517333847835992,0.7057327659122481,0.24889025150431254,33.231427369264885,80.91620163862734,45.39606509368731,0.0,0.07017424299630613,-0.2141460275484403,0.02323592413832512
101.34199999994522,sand,1.4032450683974742,-3.02233775797888,1.6776673992214155,-2.8621494013890745,11.848356563351675,8.735259170514725,-2.8897080465343734,16.520621249948338,17.49776914610412,4.028918919155874,-6.89195346654539,9.954047932117383,0.10569534258874659,-0.8544711314780176,0.6039456859635735,0.2497858266564564,33.03654479533132,79.5823944821709,45.489361668500344,0.0,0.07759116100504518,-0.22250555150437487,0.01781156026994697
101.36199999994517,sand,1.3854114440229297,-2.9784868716831587,1.8529965388722882,-2.923216201174321,11.615266930388794,8.824287695372993,-2.8045728318631014,16.01917042838279,17.48089720515338,4.0067258568248185,-6.443222690025449,10.494493485593228,0.060757723994490996,-0.8470998562266616,0.511246861858513,0.2509149641517122,32.96026331321283,77.96756187347401,45.85083876554785,0.0,0.08623123600338714,-0.23061544724647637,0.012409945204030423
101.38199999994512,sand,0.547462548187932,-2.647670971093234,2.3091345691852734,-4.078252539226217,12.172095853012078,9.407968646973654,-3.770237309413163,17.023702243599523,16.02986325610366,5.1793135163563555,-11.6966708483336,9.055152926358181,1.5086543843509648,1.609723582219612,3.4734673715988693,0.2525881521447523,37.908989612525644,64.59833857742339,59.731848176102716,31.301841272456976,0.09331678849993259,-0.23592586691743236,0.006527512552530909
101.40199999994508,sand,1.2345246032733495,-2.9807996432008936,2.1032960238692464,-4.001537506878036,11.642458717882764,9.549276836291327,-3.0962473596873634,15.996125863909668,15.408129949368362,4.480269691612533,-7.4071661949308485,9.48191498808495,0.9299969732286802,-0.10272564727997757,-0.9771794528168932,0.2554007197436503,36.59760520364416,60.50744093845102,36.786490502867366,0.0,0.09634512420379106,-0.23472926171771966,-0.0016956694097878336
101.42199999994503,sand,1.2293315351298781,-2.850464245549233,2.2057437796861743,-3.9941221721165143,11.055010515639008,9.307192516334242,-2.6389256581565057,14.71624459955862,15.524472435472312,4.273245120287109,-6.295322519060303,9.769038597673532,1.8955842725579235,0.7403012986534749,2.112183976600726,0.25838763562441397,35.55206357573244,61.20857249663406,55.14058266969123,30.25226018128491,0.09994845500993783,-0.2338437037022712,-0.0109975606014913
101.44199999994498,sand,1.1645330113638375,-2.684722287787471,2.313318374222824,-4.094797377578798,10.677404534306074,9.208526190305085,-2.4183704643082864,13.920054887266385,15.417734908320995,4.225063215034721,-6.000335771778854,9.860661624312707,0.5331602431898256,-0.5203641286729942,-1.1473719215845863,0.26138483049814865,34.78331357636236,61.054391615558636,36.29220422309052,0.0,0.10422048549051818,-0.23291788590655318,-0.02036578872432082
101.46199999994494,sand,1.206510180201195,-2.5699617035982945,2.375559568024199,-4.110578116534403,10.30165913482021,9.072194636479997,-2.0881721548399126,13.027206398186188,15.310822740678152,4.102074544124099,-5.194614230872373,10.351257255148827,1.5347693033521568,0.6080014240976536,2.3190847254625817,0.264266947156499,34.70985818624476,60.03698033146854,57.809103425736616,32.15133086367059,0.10940704965717288,-0.23198891075467282,-0.029296885899476318
101.48199999994489,sand,1.0245862772380465,-2.3416694426181905,2.5266215834030934,-4.487003193240545,10.171855592548509,9.090078222488787,-2.073781438440267,12.58388923352165,14.810348083281426,4.339019612863805,-6.145456554775247,10.327123323483232,0.10563757724503046,-0.39768745137720235,-1.099280286919945,0.2669940626359106,35.43255856032935,57.768476005349385,38.917448926609296,0.0,0.11518343647198825,-0.2307740115026035,-0.03768520786548613
101.50199999994484,sand,1.127184628128464,-2.2384233582480615,2.4707110926133744,-4.617830462604008,9.82520538101732,9.129889916240726,-1.826487759107031,11.847518575348182,14.527771773485043,4.191243388748323,-4.707244883477811,11.130041612846334,0.07928322700879235,-0.35414094341266866,-0.9366269033062399,0.26949937036475385,36.52622020528401,56.684178996865334,42.353757853608975,0.0,0.12163389725747877,-0.2295521959699059,-0.04551142227369306
101.5219999999448,sand,1.169419890555092,-2.0905155118854566,2.476079687895129,-4.844357253004817,9.423395174679381,9.179507847692845,-1.6908932451962944,11.231260264498708,14.100575708197432,4.193905066364209,-4.190596852774369,11.775603862209463,-0.15418297347449772,-0.18694777068739726,-0.6928489419123272,0.2718082994051422,38.6875535057578,54.756073440140526,45.776683211842354,0.0,0.12825963958521677,-0.22814147053673503,-0.05291853423606336
101.54199999994475,sand,1.2080962621168765,-1.8959143561283343,2.477364623328696,-5.065086390755475,8.936330155234941,9.145538775426171,-1.6055285948827271,10.629196356488173,13.67633499020886,4.186138974834814,-3.7876816541998988,12.378992251165608,-0.42932017790832877,-0.02395788273153273,-0.42786782118878575,0.2738756847625746,40.44701608244551,53.19234570941866,49.24951334290182,0.0,0.13506968169531464,-0.22706952276758466,-0.06003129479446646
101.5619999999447,sand,1.2054032358095421,-1.710083203902887,2.4580554053173573,-5.37979997688795,8.607385182055186,9.052464214506722,-1.5488642079243828,10.217570503621591,13.110761950583647,4.192129244158911,-3.4490236215336623,12.982972523048872,-0.5720993567350192,0.20226247903200364,-0.28985516233240644,0.27577578230468414,41.30901125527332,50.36890982049216,52.883002939675755,0.0,0.14142529982313573,-0.22578731705143387,-0.06715396142942212
101.58199999994466,sand,1.1983837359885652,-1.5301817336985453,2.421058203403489,-5.768752465571683,8.404574285798429,8.904634868555387,-1.441512045710587,9.868917964073079,12.449834140504578,4.200342433711611,-3.1270675659442277,13.587441987400048,-0.6481075658725912,0.44328362515429026,-0.23870969533012754,0.27756028482094575,41.50458113511532,46.938761363569114,56.58703544170718,0.0,0.14696526062875895,-0.22388913760725634,-0.074718825133992
101.60199999994461,sand,1.1877295181504515,-1.346576785563541,2.369226503540524,-6.209431694162534,8.294865464332982,8.727400941087893,-1.2710000983247007,9.53171211480441,11.766774090442471,4.206982474731583,-2.823711511770137,14.174040745265321,-0.7013671496690065,0.6805912714067762,-0.19472463585050262,0.27924976071669677,41.66818129830059,43.48157752839958,60.31344111440698,0.0,0.15142804411487382,-0.22113303137804585,-0.0831042843555278
101.62199999994456,sand,1.1832789413776588,-1.1606639489393054,2.301959491631135,-6.6804383816712,8.284626545625153,8.456807369140174,-1.0480719880261522,9.176898049180588,11.089083866354192,4.207247437535551,-2.5478882418236806,14.73577332306154,-0.750096980678972,0.9183456939397078,-0.10817474833134692,0.2808647954703371,42.3681652534542,40.21192114672096,64.05016359617484,0.0,0.15457058529562714,-0.21737441753659348,-0.09258278348818233
101.64199999994452,sand,1.1787668849422464,-0.9641603304610267,2.226707059817273,-7.14446545418268,8.265096992386411,8.280642267589043,-0.7676235370548322,8.815444984047563,10.417717925052159,4.198543443481318,-2.2848791557228694,15.246652307351521,-0.7899299458133435,1.1440619601955613,-0.07826452440581352,0.2824340553080317,42.39572656053392,37.05543956203528,67.6083094816391,0.0,0.15619682988814246,-0.21250356652342778,-0.10332983755620635
101.66199999994447,sand,1.1677853656327775,-0.7635686042360224,2.1430104914829435,-7.5439614095176495,8.233236479865218,8.15073108841861,-0.45711274241928934,8.44029787684206,9.754716045354606,4.16077318606726,-1.9929491465106821,15.694810641646429,-0.804737497101487,1.3549084951701997,-0.059677754623653795,0.28397222494047675,42.460149134064146,34.04687906449218,70.8344281944769,0.0,0.15615818450877014,-0.20632364685404495,-0.11548419905102536
101.68199999994442,sand,1.167820971493302,-0.5712936259453825,2.0449617171485626,-7.84936519350855,8.117244344249023,8.001181751652531,-0.2071812335972254,7.992695741302474,9.119193515998374,4.043492710389672,-1.4202888148143717,16.00181352802914,-0.69524448842385,1.4845503166239522,-0.1258864841615214,0.2854828695235335,42.44410884147011,31.515501595540123,72.7555896565901,0.0,0.15417851815716693,-0.19876719451329083,-0.1290405112711635
101.70199999994438,sand,1.1717238147888718,-0.3973387801263971,1.9311909794963968,-7.990798346289015,7.807272935060974,7.721698105501579,-0.03740361337664844,7.432797939049344,8.557597113774854,3.919162913329932,-0.43261225717878116,16.04445576635183,-0.4444911081268881,1.4719281111901787,-0.3387590304781596,0.28693213822113917,41.693515960252654,29.86555349102781,72.40927094030894,0.0,0.15009534629835478,-0.19021510123628727,-0.14353815696874456
101.72199999994433,sand,1.1744819298874893,-0.21537404689831724,1.8179689396174528,-7.988838506585852,7.31692650793568,7.314039407365293,0.09038905764532434,6.858062514150028,8.134036293160497,3.7875734774116943,0.5842696670015006,15.954573431304205,-0.2423428232372101,1.4010245982672374,-0.5376659977490873,0.28823872488890157,40.32692141206445,29.386400598637337,71.49649212058512,0.0,0.14392482018106348,-0.18127240528719168,-0.1581485143744565
101.74199999994428,sand,1.1765491764688292,0.18311247303667377,1.693875137317221,-7.905132466622771,6.766259947305797,6.8836737633997895,0.17393014595095635,6.344775858218553,7.879719883389576,3.640140293693571,1.5519438635710436,15.913949342561011,-0.12115722829596881,1.334100000098836,-0.6237521358943297,0.28933018650539727,38.867093020228054,30.10088633215692,71.13325324486098,0.0,0.13577066809453212,-0.17216017246398435,-0.17208316504094331
101.76199999994424,sand,1.178654735643936,0.493332121645372,1.5990303740660874,-7.769052785118555,6.218981066162866,6.48060556695375,0.2008862875430294,5.907282160220092,7.65836784997425,3.5156779622686303,2.5023240299997904,15.903921433767604,0.029683157630045677,1.2149888968754654,-0.565856252807001,0.2901789518134931,37.46836242819404,32.48960335564402,70.9562202454853,0.0,0.1258759405380033,-0.16275420371585742,-0.18470783002349644
101.78199999994419,sand,1.1822731014699837,0.6966800818632278,1.4875384438817996,-7.603913179859642,5.6850883182777014,6.116222386184342,0.14774610650498576,5.473797286114502,7.509667303942604,3.4373859131572218,3.4407447351883564,15.885731046006061,0.15535365662393158,1.1667585446531072,-0.5800280322574917,0.29079748083335166,36.20840534883422,34.008711137375585,70.69882971045811,0.0,0.11460833115462604,-0.15284447112288224,-0.19551771363830242
101.80199999994414,sand,1.1843058971707894,0.8851591600997584,1.3748816978512846,-7.449545224594055,5.153561400310138,5.792219782374537,0.04200953899133997,5.034689550201905,7.374607960167687,3.411833857975676,4.351536534203884,15.872383849435199,0.2670730745362302,1.1622390839668233,-0.6007120185479133,0.29118508290200934,35.19716111989911,34.89787472474625,70.51427816868919,0.0,0.10222869508549198,-0.14232506716017176,-0.20416372032984678
101.8219999999441,sand,1.184787417157001,1.0615879946881803,1.2628142704081076,-7.315939887009745,4.544314580877711,5.55480073034605,-0.09716779279330645,4.57781313208358,7.226486097235358,3.4381087178221055,5.219415170117269,15.867241860823171,0.3764467718649253,1.1845777077009967,-0.604145195040564,0.29133440935508886,34.55827002294747,35.67583350065335,70.48849279866434,0.0,0.08887848566581188,-0.13119077228513212,-0.2104506703073942
101.84199999994405,sand,0.647769091968399,2.819595611114665,3.6441474554808364,-7.09427329955763,3.8393565801208953,5.080633266176321,-0.08282262734265194,3.8507705050552268,7.111981786655164,3.705138730581986,5.803533658518374,15.968171478573993,-0.27578911026423225,0.6088616957194728,0.7715501779399306,0.2912792071255753,24.075180740463114,30.862907346012477,37.7713364944085,72.27328260919238,0.07488189676641108,-0.11986099910329871,-0.21428738856928709
101.861999999944,sand,0.6952670086027559,3.538192316141608,6.628315377639204,-6.3116422767761415,2.863602439533573,3.695059331734188,0.31395612523378097,2.4356828361936183,6.7389617451794,4.131406536385777,5.983833098346759,15.860421331601582,-2.1479485537313385,-0.3066206872850132,2.3077150442374252,0.29157535643286236,53.525012533111,20.968657741248958,40.11069734119657,72.13544380178851,0.0621056537903999,-0.11200557680356081,-0.2164734527777688
101.88199999994396,sand,0.5154783979285157,4.168654266207418,7.059399176758427,-4.905532111514162,1.7649740604684585,2.217356247711085,0.2309932006791301,1.2455146187575745,6.193592200732648,3.9420676266802737,6.745754054602111,15.08203988166256,-1.9521682014684736,-0.5364127982128594,1.0758311721632945,0.29268947537364987,49.19244039686188,11.407029539223533,40.2171809452199,65.92053069720549,0.049971695673931234,-0.10853424224584092,-0.21823620945503766
101.90199999994391,sand,0.21222955184873726,5.555076201263806,6.024640918745603,-3.655332781164073,0.8153427957091048,1.3504765171914048,-0.08507776057066258,0.22558130341132476,5.870026840602116,3.5624517738426498,7.817912800105286,14.461137242671832,-0.9130883500141992,-0.439634436322603,-0.43160929269993503,0.2941676122909495,34.41301123597951,6.062320218194463,41.6986068019109,61.11647526753419,0.03750597120504575,-0.10752473277837553,-0.21977863347628576
101.92199999994386,sand,-0.059830317218335205,6.816810224439637,5.871747900874354,-2.418795041394174,-0.044103983323832086,0.4394396166447878,-0.391392253005973,-0.7807313299054741,5.8266765523101265,3.2336850953724863,9.002778120012911,14.231523395539718,-0.4273979550606553,-0.6124055114615641,-0.9934344790830095,0.2954528997619174,30.102098188752223,45.08070390685284,59.238818801316924,0.0,0.024963212127048467,-0.10699798055467274,-0.22102325113363486
101.94199999994382,sand,-0.052231983417617034,7.947160443273984,6.128998673081147,-2.142664770448773,-0.44630217902294145,0.30854572338624053,-0.5231981475244771,-1.8564856311169275,5.858285696550286,3.1396213636496393,10.065567177541505,14.266398404631541,-0.20460655133995428,-0.6651245396456162,-0.694587113094422,0.2963664441335046,29.669702183030672,48.85896952088267,59.668251713211966,0.0,0.012972757422898778,-0.10619358166677441,-0.221893031401781
101.96199999994377,sand,0.10414642541446684,9.024277185411961,6.457193864692792,-2.042881202529048,-0.7308396511122985,0.21417359936444225,-0.6149263462279502,-2.963836134205797,5.837142214623494,3.1298486506934657,11.012880521892324,14.379097573438326,-0.07514186565427107,-0.6910723476768813,-0.40257525679060535,0.2970132562512515,29.78955090858523,51.97741646440055,60.72287673967827,0.0,0.0022457720802500376,-0.10534187543422754,-0.22211392815861228
101.98199999994372,sand,0.2816030837156569,10.079475790722352,6.727484553393377,-1.9656493608347017,-0.9961335738162731,0.14988788824088495,-0.7293103437045014,-4.114798075688884,5.7833063830091245,3.116237505048381,11.909238014230482,14.468078153337055,0.06097416071537558,-0.6762883751477473,-0.2186601300163811,0.2975033428189879,29.69811756331327,54.07999477972434,61.542806702156135,0.0,-0.007261958518759979,-0.10448065048409012,-0.22164327193932062
102.00199999994368,sand,0.43735596249701253,11.04198534643969,6.9786533490313385,-1.8994721845035443,-1.2417803144634036,0.11538734202515144,-0.8647737266336917,-5.334949913443403,5.706470210649326,3.0852881663959284,12.752253263777058,14.524328181946105,0.14830341283332327,-0.6615766355737654,-0.05728664504082767,0.29791134623409554,29.46597647194806,56.221640183739915,62.06695075800397,0.0,-0.01571179636922846,-0.1037048435624922,-0.22055554297108032
102.02199999994363,sand,0.31650165154084753,10.238238895512879,-0.5625261445186887,-1.5605516174349554,0.2473609411827251,-4.236563541810542,-1.4240363405620682,-2.02424057103575,-3.8414098964943424,3.0307395118070963,15.770952597400479,1.9526326728098642,0.9247353695389161,-0.2706955974201062,-5.803384220822897,0.29636941455898663,14.570278164421946,17.617400522842388,27.188860194331582,0.0,-0.025991455696510648,-0.11066103554750324,-0.2178918998262708
102.04199999994358,sand,0.5278494358057851,9.755843501859236,-0.19193433860506914,-1.2864470452275425,-0.42361946533603095,-3.6584318652161905,-1.9474334844147956,-3.8709480040821154,-2.6495263073453934,2.9823603818495314,15.6259251970008,2.652350960172896,0.45748287444623253,-0.3852567964312497,-4.97469077676635,0.2924899347746853,14.885991252292909,27.717300334672824,29.828625862103998,0.0,-0.036686942472994845,-0.12315562555448134,-0.2126325363452237
102.06199999994354,sand,1.0324470499442664,10.281058688148999,0.8696520640482177,-1.2535651543711734,-0.8260999474725252,-3.1771898089883868,-2.578821062625677,-5.798909775415957,-1.155559760970835,3.2037707015289736,16.549408900436074,5.014292853315121,-0.15559597820169094,-0.10827090675319671,-2.7493546700593128,0.28671174160181,18.64018045823361,40.15894882404893,47.44960382608259,0.0,-0.046231682987078505,-0.13725746983123438,-0.20437500673965947
102.08199999994349,sand,1.4941519568397572,11.777831819009792,2.600424691186408,-1.3245300011526975,-1.0338379533865218,-2.697834608014648,-3.278068604420051,-7.7626580537482175,0.713176572059151,3.352295746325945,17.668194698290606,8.22037116481945,-0.6760318118789426,0.10748760676194623,-0.09697850293667469,0.279952976706238,25.904291353773385,54.928002569486246,64.49475913596962,0.0,-0.055186329256276985,-0.14837608697640295,-0.19397261575611963
102.10199999994344,sand,2.5829293149965564,13.711080266093546,4.808311285781288,-1.398136436323276,-1.4555489554379362,-2.3179041323740313,-3.86108647887467,-9.49458171838983,2.5991181352190242,3.6012946420754077,19.107540703483476,9.307882339424003,-0.47370250242029016,-0.5982604462073559,1.3327599215369865,0.2731809180855201,36.51754028232594,65.33940239608407,63.94735938411815,0.0,-0.06265550007028484,-0.15434520533955848,-0.18179792194100358
102.1219999999434,sand,3.827920766312827,15.311648002154055,6.854463867024492,-1.6141667413373408,-1.836586596129485,-1.984280364146275,-4.4242084286127294,-10.419061345073136,3.8274720496715506,3.639524260676979,19.61975042518938,10.220121875462674,-0.2186705042560935,-0.8665731356523905,2.1012290067600676,0.2669495210908254,45.969098210338935,66.54946632925557,65.50274083962381,0.0,-0.06815977076088817,-0.15785940780656949,-0.16792817992443815
102.14199999994335,sand,4.444990371923021,15.98363500956895,7.888853446822203,-1.7025144218413693,-2.1192543122200656,-1.6130570070232353,-4.823341987072364,-10.685665614871962,4.805720498182047,3.5601070704713855,19.65451085831106,11.305573831716044,-0.0930515506982012,-0.7208781677802086,2.418095952478964,0.26155478256987374,48.51034139733477,65.69244069364562,69.13681121047732,0.0,-0.07248635823550806,-0.16178961569065237,-0.15376470603578735
102.1619999999433,sand,4.463161823124513,15.9079917048913,8.154476725766203,-1.6979636398813358,-2.366778149884863,-1.235461551592062,-4.983580114429002,-10.455590143033,5.591079543249213,3.4909126966414594,19.547507002223107,12.34518618483955,0.062258027315982206,-0.3920333145525523,2.3172388583978285,0.2571024087890681,46.76076821330778,62.83243851902628,72.58120599995644,0.0,-0.0759835976228322,-0.16695028515609642,-0.1402026496340825
102.18199999994326,sand,4.274545879532835,15.46961959135094,8.188491822696777,-1.6664876694355657,-2.5749098623732705,-0.8691295224544953,-4.97535529332246,-10.045524591085282,6.284478919571534,3.4522050522407555,19.352219557400463,13.285944165332133,0.15107741398165156,-0.05448450779110479,2.123385605090432,0.25355530013804595,44.357859179289925,59.692715462239775,75.45890297118447,0.0,-0.07894414018966622,-0.17335634079762638,-0.12749431949828863
102.20199999994321,sand,4.074454124263346,14.942043133572259,8.185016619344932,-1.6417181190234307,-2.7495949640687964,-0.4016659959267558,-4.886380112948316,-9.590306936961367,6.9374818424033835,3.430460750973617,19.102789874456263,14.107989505373531,0.19648812798754148,0.22570020729320342,1.9070646342227344,0.25083733138928105,42.13792337253855,56.906244498386044,77.60836350196867,0.0,-0.08169420401928722,-0.18079923969385106,-0.11565869282620955
102.22199999994316,sand,3.904137138352059,14.41964082035804,8.185382163899753,-1.6086297478972473,-2.8729536865091694,0.10906068021744142,-4.770934963970536,-9.133997955088317,7.569408222579641,3.4056938326863744,18.80904560227696,14.802451644318332,0.2169776102637453,0.45589953121147786,1.7117511310756928,0.24886560855559317,40.194363403334876,54.64744452843216,78.98307975983282,0.0,-0.08460520654298477,-0.18902670445964526,-0.10466076444628734
102.24199999994312,sand,3.755353548773541,13.925354785304785,8.195256087444948,-1.5868429772274302,-2.970411752523291,0.4261760492506381,-4.662179055549415,-8.681272425419456,8.18535538309554,3.354999566988294,18.47621608366083,15.366597284580306,0.2155283303389127,0.6151492947626576,1.5117892721622963,0.24756114497557333,38.514162523699326,52.89782631566045,79.6437152163324,0.0,-0.08803916061120233,-0.19782742477550733,-0.09444064233654285
102.26199999994307,sand,3.611717799788975,13.455305483022986,8.203234006042894,-1.5700038320714844,-3.041181952883459,0.718565158711399,-4.536535931337841,-8.18598730491981,8.982688184682406,3.2569654399313777,18.084878939732484,15.830656032722114,0.22263713060661636,0.7655013066703856,1.2627912829211139,0.2468379506680098,36.99822361961703,50.74396970753906,79.77917118266201,0.0,-0.09240659583031444,-0.2070519209232829,-0.0849454781878344
102.28199999994303,sand,3.5046704552501415,13.025972033423926,8.215477737913808,-1.5418727096294278,-3.081417541167623,0.990975069512297,-4.427966644447307,-7.7159869712652025,9.548511031837263,3.1567598398530503,17.6577840723297,16.199779983559313,0.17659516963871894,0.8556580431490762,1.0678806019831928,0.24660420515193107,35.73794751953503,49.70836757142326,79.38347447687286,0.0,-0.09797598873864546,-0.2166255943773572,-0.07614416261589244
102.30199999994298,sand,3.434982143878759,12.560792866612742,8.409516413021201,-1.5037832285047044,-3.0942491970225383,1.2433736266362083,-4.344095034755132,-7.252417724150895,10.135797633799571,3.0596606914040354,17.232473531673364,16.456430682707094,0.10988263262718752,0.9024318548865659,0.857440062730422,0.24678154854167292,34.26337950088832,49.25832789422185,78.36871710619135,0.0,-0.10480306266616,-0.22636482054344056,-0.0678939326061902
102.32199999994293,sand,3.42459480202716,12.197247066276343,8.485211061031277,-1.471236988486857,-3.0890332397659064,1.4684531280736612,-4.274010866374726,-6.788003474677977,10.709431660526779,2.966906462549497,16.794599306857904,16.61139828858291,0.04402366230965598,0.913441396605961,0.7150929650733707,0.24729448572207713,33.59065996602965,49.11743318886558,77.02092717776696,0.0,-0.11284781251460753,-0.2360496371837501,-0.059930477460071775
102.34199999994289,sand,4.555112936402929,12.930168871518806,9.35769759901732,-1.1295616622247573,-3.0870133660331973,1.7547044055846506,-5.256282193008713,-10.8379092576286,8.215186863292194,3.9575855559105673,18.19429469802568,14.708165637430321,1.9638417345793733,-1.1521633508093732,1.8154167966408077,0.24910612992503875,39.52845337357787,42.95523497767492,29.640811695298563,60.137682703292946,-0.11507031332941868,-0.23850727714697761,-0.05080291745138104
102.36199999994284,sand,4.481186053248376,12.185182059418972,9.333459997427255,-1.3571503962159337,-3.1628414413231205,1.806301289171409,-4.701793590173136,-8.003986449011315,8.90619562430659,3.2185698004102243,16.61985862617349,14.713372623761808,2.2391046044881975,-0.8446594135825322,1.7696670692448813,0.2518326709184413,37.704547674256354,51.976002438640954,28.15122038331932,59.41803703615031,-0.11573053033220387,-0.23733337159878706,-0.0395657878545381
102.38199999994279,sand,4.509714462098044,11.688775814181898,9.240104688006321,-1.2832412176057233,-3.016662389922856,1.9858598397224316,-4.60211597104963,-7.602242124275236,8.876403306924448,2.9203311098055127,15.600855470403452,14.964238788597582,0.7592540170169433,0.467211852768588,-1.17201262702069,0.2547773274172776,36.379135828107636,33.4892453387606,60.84739494548377,0.0,-0.1169821533861057,-0.2363612919662122,-0.027857783965550872
102.40199999994275,sand,4.5930125515942075,11.3210309475607,9.15105364049213,-1.1519004122016698,-2.862602482849395,2.2132559217265344,-4.690870442541706,-8.344022844010984,8.70377588185472,2.7144259765954173,14.814052153367474,14.984619475418498,0.3918276151246356,0.5407195563650038,-1.197055953650027,0.25780737007728954,35.91693812275786,32.6840522472544,60.26593531133874,0.0,-0.11902124114457088,-0.2352022706222631,-0.01662401749414191
102.4219999999427,sand,4.659000046219663,11.008361055011637,9.134463950333885,-1.107486962495185,-2.7426415743490526,2.329999619526429,-4.6113422616312745,-7.851651698809353,8.992515091105014,2.4834094357881003,14.082072733663718,14.893015004482937,0.31145242431678694,0.5731397077373084,-1.2611028706815142,0.26080186016590134,35.732863103308006,33.343979879286344,59.291987115659225,0.0,-0.12206704394527293,-0.23386648110242345,-0.006216847976742402
102.44199999994265,sand,4.527484902403399,10.612084068592134,9.092902941588065,-1.270625245578535,-2.7125717786438166,2.300089734212918,-4.205199279745592,-5.50481751867625,9.997549805428683,2.033603426737988,13.117253315622785,14.935705791803189,1.6457856647185891,-0.45945115931462793,2.2060061008165435,0.26367130655513604,35.5305911127018,59.654130751602885,29.996166706004455,58.92348664174896,-0.12618215897135968,-0.23247633370804774,0.003243555455949204
102.4619999999426,sand,4.78958146633048,10.44001490045773,9.18181954663307,-1.1764709329751473,-2.5446718279251783,2.389489685057244,-4.292305142104786,-5.560587576623346,10.232016641749894,1.9482423451792221,12.584565371309186,14.593136658731675,0.31544178189957556,0.5975446578670278,-1.2149372895765984,0.2663873728059874,36.08947571113921,37.692910379039574,57.528077396040516,0.0,-0.13105336336200907,-0.2308795541223255,0.01175508131489112
102.48199999994256,sand,4.978391021843088,10.155834299164836,9.26503667431461,-1.184393297705907,-2.4118752479633745,2.4309829607703755,-4.284712100866326,-5.052210319696093,10.767758216594936,1.7859273379195955,11.949891360938786,14.279329435896987,0.1560402278810566,0.48446702578650047,-1.0636126075354448,0.26891643625936096,37.66524679985693,40.32933021426556,55.90486817133241,0.0,-0.13662580696933485,-0.22919343391896385,0.019384743307767637
102.50199999994251,sand,5.297556866128773,9.79281178882878,9.351563848632326,-1.0323312532767748,-2.1762850460836978,2.5600930582218666,-4.469228881223401,-5.838453714231595,10.952737009309685,1.7983521049914004,11.480753542686289,13.779583915474227,-0.252503332739701,0.2296522042333899,-0.8676729027800061,0.27125943869302627,40.16309206639848,42.39617628568791,53.29334985173835,0.0,-0.14256720240547657,-0.22751146234984093,0.02631496234019352
102.52199999994247,sand,5.480825440462803,9.289423318659734,9.347484479659258,-1.0381832452873794,-2.003277956930484,2.566471180406623,-4.4290182916903635,-5.303789347976194,11.517319033587682,1.732538988896956,10.916659546836076,13.348226730511499,-0.44942348619619604,0.06379949863029807,-0.6921783521182248,0.27342754704757566,41.81175417887126,45.400152646450124,51.37009645605781,0.0,-0.1485669751057386,-0.2259417012133419,0.03282482489469907
102.54199999994242,sand,5.543157395378,8.76089199038964,9.240687850938626,-1.2309173922896524,-1.911575560651106,2.4713564182466783,-4.29574678162653,-3.826134080992703,12.434575555869742,1.5190048285098372,10.24493528864636,12.983012998337426,-0.5163602830134529,-0.0007744038543270081,-0.486242021022061,0.2754474981163255,42.53109551806929,49.42665592930594,50.030953477585825,0.0,-0.15430425389850003,-0.22429250128714523,0.039260149632287196
102.56199999994237,sand,5.8126267340546365,8.42306520905983,9.081409041592876,-1.2415823453797834,-1.7152320926019056,2.4562597968945754,-4.3201088174005084,-3.479296318337666,12.997374628912102,1.4280278113695823,9.78982968779961,12.479198157901594,-0.6683181587952859,-0.17497826620957094,-0.3613885077819585,0.27727690218286016,42.870333774046124,52.856744848641306,47.791544646662466,0.0,-0.1597502275593173,-0.22268290641273988,0.04582384100159914
102.58199999994233,sand,6.185834877727427,8.228894528693614,8.931853021362608,-1.220939153813965,-1.5284383361490512,2.421165698580605,-4.3340526276579565,-3.1638519790723816,13.607703603037757,1.3214048396391727,9.450583318502888,11.88261088332018,-0.7557747897252763,-0.40268229113238635,-0.2740009666651395,0.2789645017834943,43.071287630854265,56.68719825181927,44.746509548451314,0.0,-0.16444541031534016,-0.2205279674313305,0.05285390580954591
102.60199999994228,sand,6.628176439475341,8.13930075809358,8.767294515131752,-1.2044196630053245,-1.343559949391759,2.369421916592458,-4.343343875335541,-2.871679471653155,14.219120461166096,1.1634960050955345,9.144011179725602,11.23732922836667,-0.8138645369078213,-0.6473364106939341,-0.1965502904654272,0.28054435428756863,43.341216739863384,60.626671223802724,41.44033718255743,0.0,-0.16807161615719665,-0.21752236808984676,0.06069536685204445
102.62199999994223,sand,7.106731340514638,8.15640651101427,8.50245987133547,-1.2009297928162597,-1.157915686248943,2.301553833178918,-4.346755239957183,-2.6085228325905083,14.798035521779866,0.9561683957052274,8.818556801378982,10.588947450603644,-0.8614523977252073,-0.890537184940991,-0.09143590139323411,0.28204955672758875,44.065695498169504,64.50167961240456,38.2807263522172,0.0,-0.17035647517900748,-0.2135296844058603,0.06961680278987745
102.64199999994219,sand,7.585225259281691,8.174711168282357,8.325509798828733,-1.1968097155071211,-0.9613174539134217,2.226166475645389,-4.343600884909046,-2.3597198884164543,15.316456818384962,0.6916648357507441,8.481998383519667,9.94438444025624,-0.8947282126620582,-1.1173334626237772,-0.06142382309938034,0.2835149677431499,43.9143884449435,68.12877338493394,35.23235980654374,0.0,-0.17110325447345637,-0.2084528552357639,0.07979119424358705
102.66199999994214,sand,8.001138429200486,8.194284307043576,8.193714848456114,-1.1901397691905924,-0.7604202971830079,2.141970800471719,-4.329522271088668,-2.0854611306436914,15.769333508319963,0.3930591269279342,8.123684422458021,9.306374510573658,-0.9035831169905568,-1.3351447494150686,-0.04727256614798689,0.284955785467262,43.79163232207027,71.41756678371682,32.34656550856253,0.0,-0.17018462464606013,-0.20209602975953597,0.09135053704108836
102.6819999999421,sand,8.316262506747075,8.132727550422537,8.05686486900083,-1.1934366626086832,-0.5680484119951719,2.044010833626304,-4.261368241702511,-1.5208216809417587,16.082144115325473,0.15059260343018543,7.678249135573107,8.688314065810491,-0.7901397876352626,-1.4654814279049773,-0.10862831934409452,0.28637475043125177,43.70082504150297,73.37190645734452,29.917448832937904,0.0,-0.1674171715454567,-0.19439528275738033,0.10428178109865138
102.70199999994205,sand,8.46890779201405,7.8625998472882745,7.794600931141782,-1.1990285298415706,-0.3956659869953645,1.9294117465756466,-4.169915438992471,-0.52803673862699,16.123746081781555,-0.002056864377922407,7.118298420547596,8.132612986624833,-0.5288976282378737,-1.4634875812599302,-0.32236428151018726,0.2877390896474017,42.95846394865148,72.97981236429362,28.28747878452601,0.0,-0.1626204206560321,-0.1857545687114279,0.11811012079008605
102.721999999942,sand,8.474950727324021,7.39383303575564,7.3983650238279886,-1.2014752460417735,-0.2156998628717025,1.8157176601245908,-4.062102299095512,0.48214005284716865,16.03136303212141,-0.12333008710167714,6.556967997083432,7.715312990927825,-0.32062774737671224,-1.4048071123152022,-0.5204254621965886,0.2889673251483007,41.61344927439301,72.04736261845902,27.788261376894877,0.0,-0.15578608547777828,-0.17682414247935926,0.13199833836585292
102.74199999994195,sand,8.397549724456915,6.8515307987483505,6.973466132851637,-1.2028258400292493,0.17841637457469242,1.6916404360855468,-3.9262351895065315,1.43467593403378,15.989800809735371,-0.2122861553011408,6.069911137399916,7.484750999026731,-0.19704030972911613,-1.3438798933652014,-0.5980371438715468,0.2899877140903492,40.16901567274008,71.68805580776923,28.6091199258979,0.0,-0.14696638562205294,-0.16785158558765254,0.14516877844476078
102.7619999999419,sand,8.253093401088105,6.308196695838492,6.571670548879044,-1.2048048734867967,0.4921387564777557,1.5966660970654232,-3.8093135139916035,2.3731339835102427,15.965064114967213,-0.24277715099339003,5.683234936011832,7.261577049488216,-0.033196343560008015,-1.2222851847821627,-0.539866935724973,0.29078037566638254,38.731447563003,71.40506782385523,31.334258763983758,0.0,-0.1363923452581457,-0.1586884527374974,0.1569869313613995
102.78199999994186,sand,8.066699201011215,5.7742351035690085,6.206918848180086,-1.207946461066237,0.6974077820156301,1.4858749413696763,-3.7394224207827382,3.303454580560463,15.926469200736744,-0.17296549119120364,5.236554803652751,7.20798002509594,0.09245395357072322,-1.1614930579075111,-0.5394868468902437,0.29135959953370966,37.40682157695417,70.99243523661417,33.15911989015418,0.0,-0.12443783316089148,-0.14910547825542037,0.16695270335072915
102.80199999994181,sand,7.88450402298461,5.239877248149379,5.880337168680107,-1.2092459101321933,0.8848605215448577,1.373247456314926,-3.7220424411935156,4.208953481395561,15.88773707553419,-0.049119087529730654,4.809357578873719,7.098482351320177,0.21289165989264355,-1.1538676013012916,-0.570146534179473,0.2917236252144933,36.30308438564894,70.64599640444382,34.196888768094865,0.0,-0.11138147716563321,-0.13897106846688695,0.17472733685290476
102.82199999994177,sand,7.705286593896308,4.5900902007282545,5.654310572588921,-1.2086202252694278,1.05964628775023,1.2612541198563783,-3.7494319405848042,5.067036153443922,15.858838532174218,0.1136129290922383,4.353886194327326,6.973415767254422,0.3254685561624911,-1.173884912917937,-0.5754038575570198,0.29186232339087836,35.547558452681336,70.49970783010667,35.148446799599135,0.0,-0.09735431540448504,-0.12828438434478742,0.18014079486475953
102.84199999994172,sand,7.537156222342623,3.9258224975723577,5.243158593728875,-0.8754015673857167,2.4687873456253246,3.257629362044327,-3.9171651476061258,5.759155057346112,15.872871954016627,0.2082153698425761,3.693614799122518,6.89520261963239,-0.21096534983018844,-0.6305890260717446,0.6373709926567802,0.29179255573764634,32.49511258832617,22.47338512605039,71.47453349748699,37.273475348612635,-0.08251355982140342,-0.1172882251367925,0.18317128340527386
102.86199999994167,sand,6.742627427414089,2.919823865872482,3.8466792287308333,-0.8932514062205388,3.639178976805593,6.5065160264199555,-4.35873059394123,5.9033941372427465,15.77128394958907,-0.20317572526456323,2.2010144035506802,6.578846161790248,-2.0377080574818613,0.39212111251420684,2.3183458912326764,0.29202664639694115,22.514573402771575,52.54043209064977,71.55767609951515,40.47098767432617,-0.06869431133582315,-0.109493842095271,0.18468610783337183
102.88199999994163,sand,5.266757849285963,1.8178114354270223,2.33791016376171,-0.721195866395863,4.17376242992383,7.186534799204284,-4.1924942224269675,6.649489297263555,14.97069462514866,-0.15557216007472435,0.9626474516780439,6.05821040415813,-1.982183116138592,0.6938620114984863,1.2338252146794313,0.2930967064425398,12.461706748721937,50.69343046877527,65.18835209142777,40.901804006398216,-0.055731918381801165,-0.10615336900413921,0.18590820227463864
102.90199999994158,sand,3.9128037803487974,0.855177734556118,1.4381881713476274,-0.4108735597189699,5.559950793089382,6.105333089182556,-3.8088213851652024,7.729684609504428,14.295269832378558,0.14717643412660558,-0.07336136010486793,5.723677797621553,-0.9133689780861266,0.5685202152162088,-0.37815987080190977,0.29458440796075064,6.721201965801471,35.20999055757744,59.93408624245351,42.32190906141877,-0.04260427758424841,-0.10540426477612316,0.18702194156419494
102.92199999994153,sand,2.58213671702431,0.0027056849401751737,0.4700797258606817,-0.11357862583420086,6.827195736122526,5.911510655110696,-3.4347537881927446,8.904530802592598,14.02915165194683,0.5032094564787821,-1.0840182145838413,5.671997874560503,-0.38521154554413084,0.7177090832201476,-1.0491852155767853,0.29590529339468535,30.42226385222005,57.819304998086714,45.63548523152876,0.0,-0.029386557200071987,-0.10519107621789228,0.1878859962813669
102.94199999994149,sand,2.229946842904881,-0.4377356820430057,0.334404473698954,-0.07939589931037416,7.952545510479227,6.186392893134075,-3.3038642933912117,9.983016743451573,14.052106261982349,0.6666419015592281,-2.1610665625018086,5.707985394321047,-0.16170522008606308,0.7543688555389079,-0.7272157863688,0.29684384330661495,30.098777999145046,58.17603268030753,49.43569062713447,0.0,-0.016676987513620168,-0.10461819866748173,0.18844230688593577
102.96199999994144,sand,2.117869530056763,-0.7247529311956955,0.23718562213569228,-0.23240020455698035,9.02677861025005,6.527821278352437,-3.29196225552225,10.933989437362214,14.168184798013701,0.7592733721390543,-3.266341814354622,5.684214211897265,-0.042038214815665165,0.77072243149265,-0.4207645429339079,0.29750307335515225,30.394534198189536,59.30558900145507,52.49936742693622,0.0,-0.0053419650429722375,-0.10393330767500532,0.18841253908006692
102.9819999999414,sand,2.0328937195083308,-0.990366421743512,0.1704151068454457,-0.4091902398481051,10.083678684729657,6.807763323183742,-3.2767672348817642,11.83202574503709,14.265196936218645,0.8755038044915915,-4.408129516040503,5.619848362790276,0.08292153152464955,0.7430050783771412,-0.2290457022940963,0.2979985540003317,30.420929438235937,60.2222495391862,54.49663959265341,0.0,0.004651508923852956,-0.10319329159202308,0.1877326022083217
103.00199999994135,sand,1.9603287985882956,-1.2368480163664803,0.13352467790614975,-0.5611140546395305,11.055429971829298,7.058082683934388,-3.2414353652656693,12.673994890481335,14.331860635626875,1.014959430212933,-5.62440416898927,5.537000757334932,0.17564512257311796,0.7148199495834705,-0.07051903861095107,0.29840724215247705,30.136490048570177,60.86211754695931,56.53611225189361,0.0,0.013485628898790843,-0.10250840657734764,0.18647142599159516
103.0219999999413,sand,1.6154662142440763,0.2592984732866166,-4.2178778086283515,-0.38220094185543174,10.319434415217243,-0.49541589267837516,-3.1466980573182965,15.634211665797684,1.8567497928533978,1.5178018414576528,-2.194494996991999,-3.9247681245695905,0.9144899693271652,0.258008678858579,-5.780859896374143,0.29687122874231997,14.86593503130316,26.820819834922727,17.93837695683592,0.0,0.023914142075214258,-0.10942293979108272,0.18365648422362083
103.04199999994125,sand,1.3419121434984653,-0.4114860892561794,-3.642994591617443,-0.5951857480834674,9.84076219099485,-0.11935503155543437,-3.097628613540862,15.473548400373776,2.5474070335436956,2.0323393770654636,-4.014722768703098,-2.757888729953322,0.4627753342396655,0.3885746620106942,-4.982423432091814,0.29300611235520013,15.222774084212158,29.333675792792793,27.79677193423992,0.0,0.034624834066111956,-0.12176285503542357,0.17831465246950567
103.06199999994121,sand,1.2897089963693853,-0.8328967714320801,-3.16557969710629,-1.1030737156501755,10.35078644083644,0.9350545694664945,-3.3421043303183864,16.43497576232424,4.790563820837342,2.6648011528658504,-5.956017089141561,-1.290756617642307,-0.10616959398108493,0.17912850399912586,-2.8457231395849307,0.2872341573235143,18.960910546064245,45.71219482227887,40.153043914845014,0.0,0.044156609897419305,-0.13571930151041298,0.1700441129773682
103.08199999994116,sand,1.3662712216597803,-1.0315373257965432,-2.686580009140126,-1.572083392423338,11.845518934221415,2.673361937363275,-3.4979709714838867,17.513214404869625,8.047056614034622,3.392188076111144,-7.963557365836693,0.5656310848094126,-0.6765655652267731,-0.049181888297831294,-0.111234972408435,0.2804514276396251,26.31954873579215,63.682309280392225,55.191962524109336,0.0,0.05304342311154108,-0.14688324442540826,0.15960842219179747
103.10199999994111,sand,1.4341908062032747,-1.4478235196002616,-2.3062598272570245,-2.684273695793937,13.835877610942942,4.929614115901051,-3.739422108242695,18.972369870027222,9.180593343579606,3.995563762522922,-9.757832851410376,2.4545668002772913,-0.46038304539929864,0.6548782963409794,1.377507398701237,0.27365147857752953,37.25208488655085,63.25109198394448,65.94017688067511,0.0,0.06055427076494369,-0.1528479873151114,0.14745415169090004
103.12199999994107,sand,1.6481339417057326,-1.8324580850298755,-1.9753355128911343,-3.949831752147126,15.455031064243418,7.000102021619805,-3.771178680736831,19.501380303308967,10.06978228849264,4.562064457376145,-10.689796128554699,3.6833730467510897,-0.18346995935313198,0.9306400802901605,2.1376259031116547,0.26740882152118384,46.8771797907307,64.56373406986991,67.09285724342531,0.0,0.06608320062205165,-0.1562704782236913,0.13365845264617815
103.14199999994102,sand,1.7310774931858481,-2.116854594715438,-1.6047874093529293,-4.548538362257606,16.106212746926893,8.004935056054354,-3.6876175314785122,19.533258210304645,11.152021764604786,4.9538344328903285,-10.943172511775984,4.652823602062791,-0.05427631285528676,0.7722979110638044,2.4293532526969246,0.2620164306629564,49.16797584360896,68.20395025733995,66.09657200415127,0.0,0.07034408023042461,-0.1601036570280712,0.1195957165360122
103.16199999994097,sand,1.7199727296215621,-2.3650477113047934,-1.2272575673338493,-4.54826244150466,16.01566570070981,8.248186337343904,-3.6173873333067883,19.42401273328187,12.204235742029391,5.101639530868676,-10.689075779367233,5.437150791272868,0.09491417286282693,0.4242287227710373,2.3166271737665105,0.25757060537605664,47.26340082963724,71.74149324122897,63.1168213996597,0.0,0.07368270727139976,-0.1651581179277042,0.10614089973701644
103.18199999994093,sand,1.6862942044807387,-2.573170797872348,-0.8617373859720985,-4.353432055814059,15.567053808856565,8.275375705594008,-3.5902045563401375,19.227929240417396,13.16041706143036,5.0735588277977905,-10.258310691660085,6.131966928755085,0.17345579009119053,0.07834826128445076,2.1195136380574255,0.2540297306743292,44.81652484802811,74.71995891551035,59.878953868838664,0.0,0.07636515138913418,-0.17144599939398947,0.09354492516533389
103.20199999994088,sand,1.660612521176569,-2.7477462821300556,-0.3884637423559487,-4.142820703761261,15.034657071571747,8.269246600659226,-3.568077562145827,18.978666143489942,13.995933094072084,4.973743390832103,-9.787134611163626,6.788868640566182,0.2107332111594603,-0.20809098297682063,1.9024521987143286,0.2513163679266704,42.56721583304096,76.96239386246253,57.028841578542064,0.0,0.07876370796512401,-0.1787649103230425,0.08183619614640615
103.22199999994083,sand,1.627667226439203,-2.8704949729222005,0.11474696263378831,-3.9602913450730326,14.509338503529943,8.268696774509268,-3.537688024310979,18.68577671283918,14.702304349187507,4.8522485851857375,-9.318526454616713,7.425669873475796,0.22457631728361513,-0.43824292663096054,1.7088475507611642,0.24934745569108474,40.59835002084646,78.43158812518126,54.728232970725415,0.0,0.08128059952639886,-0.18686994287260972,0.07098511926828541
103.24199999994079,sand,1.603522656684602,-2.967975417820493,0.4313321764829461,-3.7943271849085614,14.017245206792083,8.279645644881786,-3.462329622514875,18.35377846478978,15.275624438735477,4.746364292339775,-8.857090838401943,8.049032821249542,0.2192266910307848,-0.6031413828633869,1.5111833786866316,0.2480446485560959,38.89880717291167,79.16068699799118,52.96691911136571,0.0,0.08434696855030413,-0.19555113530469787,0.06093173792212308
103.26199999994074,sand,1.5838253604302297,-3.038912331469625,0.7233732971351565,-3.643905672068343,13.54797170687285,8.289283017560404,-3.3572929231204,17.9642368508785,15.74933778994422,4.615232362567468,-8.353826219620721,8.853621239242756,0.2217779584067793,-0.7556084531429312,1.2644702270251864,0.2473233298339419,37.37518363983619,79.3545417152477,50.799282714951026,0.0,0.08832880330712976,-0.20466471316288018,0.05161901116397807
103.2819999999407,sand,1.5542873050733441,-3.0790909611120734,0.9953135493822032,-3.5283060668008526,13.116202588527681,8.301051492889592,-3.2525778104609935,17.538102305265955,16.128662918480764,4.500150666528792,-7.875242745822369,9.420961671702505,0.17382737694746478,-0.8466377434313661,1.0684402093308525,0.24709203706756275,36.09466696701071,79.01979969500415,49.709049019580775,0.0,0.09348289393521206,-0.21414530345242003,0.04302218018164763
103.30199999994065,sand,1.5148148312460565,-3.0917270674376347,1.2473696177063864,-3.449718510073558,12.647686819995105,8.493514105180124,-3.152414171989008,17.113999940111217,16.396480964069838,4.41077633085823,-7.4057473981725295,10.008316249717142,0.10517257989526,-0.8923523582811247,0.8569376717598565,0.24727201575052501,34.59622414780153,78.0606827926172,49.21577325329762,0.0,0.09987070458830853,-0.22381208654810977,0.03500468290900947
103.3219999999406,sand,1.4808699721366636,-3.0863287158717974,1.4721624776457194,-3.431307032584942,12.281288840245615,8.569239785115819,-3.0575457273938587,16.677985977312165,16.5627349474172,4.336740847211722,-6.937124702647534,10.581652664597193,0.038571033081666754,-0.9017133227418493,0.7149709114503827,0.24778744329950872,33.909545672099036,76.76944733435963,49.037107184610704,0.0,0.10745802983552255,-0.23344132358545108,0.027302639125863646
103.34199999994055,sand,0.46738312258927506,-2.7915425044543785,2.021916000857887,-4.739604816909139,12.988817905738816,9.17103539992686,-4.27033326002448,17.969059978730538,15.056957996043664,5.698126942060121,-13.267637412751007,8.987957588691888,1.7314603129514539,1.8949427251843478,4.071584738444524,0.24901081591754867,40.017627303686524,62.65935456136427,66.1272172819306,30.189338545956566,0.11288712195564915,-0.23987326733356118,0.019214328284670436
103.36199999994051,sand,1.40826071790986,-3.2003895882880746,1.7861387074872743,-4.463741254193661,12.336375495290905,9.448480064581316,-3.396935294382855,16.772618204560647,14.66337013548624,4.7247589968595,-7.885122037622825,9.072445128447207,2.537771702564408,1.0126902922979293,2.0969824482749124,0.2516682024304115,38.20174490396675,58.525001980699194,57.02845725731417,28.35271184233331,0.11337348703874098,-0.23854738519614596,0.008678008536727367
103.38199999994046,sand,1.2294745574003871,-3.0154092093871974,2.055094399529283,-4.55577161892703,11.815641853280606,9.276820128532115,-3.031458048903049,15.617414168895577,14.82025281881207,4.79207831896895,-8.618948833484588,8.762365568761101,1.601862593301749,0.3892625613721456,1.2709956249542,0.2545852038775224,37.04530121948417,59.43594730113941,43.397913675383876,28.274449176041763,0.11463288277871986,-0.23763585984694927,-0.0028036188476963544
103.40199999994041,sand,1.1847149162460393,-2.8927946988011746,2.1942244461485796,-4.573735471127831,11.385403750198762,9.19437030008929,-2.7682799258871222,14.743198411346201,14.954627155628474,4.666468606164004,-8.063002033675016,8.919558633318594,0.4202209543463697,-0.5446057412410815,-1.1832951728100065,0.25760298205408355,36.000253271761764,60.076268937812976,33.48210400354182,0.0,0.11665861725953597,-0.2366504444830313,-0.014095394934895257
103.42199999994037,sand,1.3039537009580968,-2.8362279470758986,2.208043588154255,-4.429607141210305,10.933849395171329,9.119067035782303,-2.326885531272509,13.778793409712536,15.052124454554011,4.297788663221092,-5.938235620337549,9.713381735787992,1.857954052100381,0.4571008223365048,2.292788088400341,0.2605992201514974,35.51259907271084,59.76381221527607,62.23819718558816,28.468359809407694,0.1196496989210559,-0.23554011281848586,-0.024669788927816964
103.44199999994032,sand,1.0900188395394015,-2.631218799676793,2.4156160317167608,-4.721175036755679,10.775677250528586,9.135956923667504,-2.2854491259793166,13.267412831216447,14.730331384117914,4.549460781312347,-7.197958328167041,9.531433201975364,0.9729266880118661,0.07403426068293355,0.9119019119219788,0.26350399889303694,35.982395252815,57.77403938411585,37.06206078377473,31.21733443457937,0.12344378941896995,-0.23417486409935875,-0.03437484361418376
103.46199999994028,sand,1.1655532328091107,-2.53416917256068,2.3937310337434727,-4.836820114770708,10.516586269580051,9.224297134177265,-2.0662472966957663,12.612311103384007,14.50049948330647,4.368147736076684,-5.697953040983551,10.185856443785125,0.3371256679581765,-0.56838460755179,-1.2492992637140272,0.26624769509315305,36.214923939810774,56.930380233797315,37.55478328566557,0.0,0.1281348426075095,-0.2326872972208757,-0.043184098646306165
103.48199999994023,sand,1.213101846800316,-2.423180495380662,2.4263203669667845,-4.977919121310954,10.229292096821695,9.254930644616595,-1.8405872417903122,11.903111790796618,14.24414178696954,4.314242499890172,-4.9894808516935365,10.81260293852158,0.18451144893294,-0.501834396969722,-1.0980710192857723,0.26879451052016634,37.24374638563777,55.72633725880816,40.42648159465693,0.0,0.13359906603381722,-0.23117182905619718,-0.051127511870557196
103.50199999994018,sand,1.0418198199686823,-2.177173956121046,2.5591812577672304,-5.321501231621044,9.924175890763482,9.340003674272184,-1.8463451999762803,11.447453845120672,13.753603592175011,4.517840017579145,-5.8351473079799625,10.979174243848313,-0.21264335629781375,-0.23245759097863863,-0.9010391708313974,0.27113637390199297,39.67968609366,53.16683234494436,42.541360379893085,0.0,0.13954187083653175,-0.22969912042030324,-0.058322812561312054
103.52199999994014,sand,1.049157194155881,-2.004203211258349,2.5667604050365886,-5.510142969093033,9.427691455565913,9.357740738543239,-1.7679680187265396,10.877969597286373,13.323444330973226,4.481699125462774,-5.321204454196707,11.562063032247105,-0.42442082285497046,-0.05535991642743158,-0.7020839588691544,0.27330143481434777,41.53465739545095,51.27027806328045,45.65977970739146,0.0,0.14554960783925167,-0.22824963561526593,-0.0650633576515174
103.54199999994009,sand,1.2443857427467644,-1.91147409486699,2.4721283819304656,-5.576367331510917,8.895567303476955,9.267122645914258,-1.555141267699337,10.205763236420784,12.96328204508355,4.35039268785965,-3.8479034546116893,12.487437812900232,-0.499688780527894,0.014519549348906157,-0.48037945136805954,0.2753141033700617,42.392517530325186,49.97738761684403,49.72338787933953,0.0,0.1513050729334915,-0.2267279121451971,-0.07168380413971723
103.56199999994004,sand,1.2510209668051067,-1.715217448218791,2.4564801295728813,-5.845312325751074,8.555343340186543,9.111030196027016,-1.465185914088627,9.751369744555264,12.461580614015682,4.373463168160696,-3.498751496930698,13.048812116624703,-0.6479233406762379,0.19437251859124863,-0.35502031156124797,0.27713840657048533,42.75625535494022,47.75569680173251,53.13005174998953,0.0,0.15676385746878424,-0.22524717864860308,-0.07839247351074365
103.58199999994,sand,1.2266340989727595,-1.5286542623895416,2.4215268258906733,-6.214295637521368,8.358654919527563,8.959046014169934,-1.357414561992655,9.411886763339131,11.866184866335301,4.386821225213644,-3.1809036611810306,13.654727286629505,-0.7290795318386142,0.4238743577651098,-0.2699649145800423,0.2788234740220176,42.93640481876148,44.723742954566994,56.91887301286041,0.0,0.161481505849959,-0.2232173736877566,-0.08553364164504376
103.60199999993995,sand,1.2090901738495483,-1.3437488504127741,2.369850244959424,-6.652105058475148,8.264878501952989,8.792561175563504,-1.1985629738861365,9.104533730744974,11.222904123580186,4.3958460873461656,-2.8860942713173268,14.26065173979821,-0.780364532778876,0.6687723670111542,-0.19612260740830836,0.28040229349645884,43.176947758511666,41.4373270174579,60.81314267367547,0.0,0.16514979368912094,-0.22032857497870456,-0.09345692954007127
103.6219999999399,sand,1.2046179551829994,-1.1580472035205878,2.3020330138605862,-7.126589571696244,8.276937663836854,8.526918055995564,-0.9907325983835915,8.779004387352742,10.577071379633205,4.399122923383695,-2.620420646598638,14.83509483341615,-0.8218016268761313,0.9124874358615496,-0.0923231034128819,0.2819066674748018,43.893627305155604,38.29861532362688,64.65269585396904,0.0,0.16749847488156033,-0.2164360579573204,-0.10243626530807948
103.64199999993986,sand,1.2000110876184398,-0.961610927979692,2.2265040358714563,-7.6008178737690555,8.288291261531366,8.347742286652547,-0.7264270794914864,8.44268570980983,9.935327228796247,4.395600445278698,-2.3692718310785335,15.349689423459989,-0.8503952554444959,1.1404294042400365,-0.059779597802548205,0.2833713183583555,43.79242194944457,35.27095838989184,68.2486861642927,0.0,0.16832814255744166,-0.21143927993367032,-0.11264952173448223
103.66199999993981,sand,1.1929902144341833,-0.7609198782452078,2.1421461474566925,-8.01000620010361,8.294610169330927,8.216120064557682,-0.4272112284692162,8.086676569663327,9.30037373944324,4.380551611067252,-2.0921159382476384,15.797027356093734,-0.8546222212687953,1.3578629030507516,-0.04403774311143933,0.2848121369609913,43.71790784557032,32.39880430699698,71.49343668796769,0.0,0.1675090768490186,-0.20514220754298448,-0.12423285180904556
103.68199999993976,sand,1.1973462854303443,-0.5687414144644862,2.044268103373218,-8.319664232490979,8.21690839607604,8.075383328714656,-0.18549678818003512,7.647615590024851,8.687003229911783,4.303667679328345,-1.5257657682083217,16.103710806071906,-0.738776120940586,1.4843072728045963,-0.10460213099734024,0.2862324702778259,43.64830903244158,29.98585373522186,73.40627173736515,0.0,0.16484055385416715,-0.19748016996843748,-0.13717706343600614
103.70199999993972,sand,1.2053413494990894,-0.3961236776310664,1.9296407701181,-8.465011190888161,7.932543652399012,7.807523648464785,-0.030744671177195038,7.095563706359432,8.139057733006524,4.203957906003447,-0.5334517542805663,16.140387083413522,-0.47907615293874517,1.4728633361973331,-0.3182219135562106,0.28759974427620144,42.89777820297202,28.39591829763086,72.98998709394618,0.0,0.16013645889509198,-0.18885190356868173,-0.15101167543060104
103.72199999993967,sand,1.207988397494958,-0.21567091788695109,1.8160133226138706,-8.462474461610975,7.454017384415543,7.407045797730134,0.09036355174862165,6.538557391844696,7.730703216151888,4.089067881027073,0.4781230961886078,16.04382394735385,-0.27328652673682546,1.405077842511187,-0.5157099728227792,0.2888326089914936,41.5321630195035,27.962197134692303,72.03356943452383,0.0,0.15338548837077712,-0.17989605102937345,-0.16490359292479764
103.74199999993962,sand,1.209378091609939,0.17856599416407823,1.6919854388869418,-8.374709561986359,6.906497652334089,6.979997277715204,0.17350708908651957,6.049760689217267,7.505292431851954,3.9497978683438704,1.4345184681305092,15.997408684423053,-0.15119527518884873,1.3371180896559993,-0.5937049548916419,0.2898594855676304,40.062634230462855,28.84237338667242,71.64001562127116,0.0,0.14465419579155459,-0.17084949708851016,-0.17807377499807078
103.76199999993958,sand,1.2113165528638756,0.49201240389270995,1.5969049119124632,-8.220566844247003,6.360801791535286,6.577186938915378,0.19621787748030795,5.661365363835609,7.277363459378099,3.8323513397826243,2.37705038466571,15.968619857957673,0.009993786237432474,1.2108993375661936,-0.5411043512848357,0.290660579626947,38.60149045820651,31.536125218760525,71.33152503723227,0.0,0.1341952192072859,-0.16156053122352038,-0.18988574601201003
103.78199999993953,sand,1.214135339038962,0.696703681984916,1.4860460371464779,-8.028645033457028,5.8250890822310195,6.21191331947983,0.12241717529494334,5.214116173539141,7.216470235630197,3.76156237113668,3.3096570213238,15.929967773199994,0.13407343790842374,1.1491306311505316,-0.5451341172804254,0.291247896045995,37.26392674397889,33.27796753885824,70.92949556891384,0.0,0.12238178911683563,-0.15181471703003369,-0.19984744646919764
103.80199999993948,sand,1.2151958652870343,0.8839022734608986,1.3734030160182273,-7.844169336418013,5.290614315542746,5.884400886738699,-0.002716977558534117,4.786302659823,7.100618984826063,3.7421339230957433,4.216618673471702,15.893828702807463,0.24981837872022652,1.141138630888703,-0.5744137424617777,0.29161779900191875,36.15673434308261,34.273614208229525,70.60901520020495,0.0,0.10948267140802935,-0.1414928518542574,-0.20762997199128258
103.82199999993944,sand,1.214532863790968,1.059152738483814,1.2614745556123772,-7.669539800504305,4.656111832174265,5.653192417774783,-0.16356534543376428,4.3320486629687105,6.973947472884919,3.769965776751443,5.079706843811305,15.866383310824672,0.3653821147920433,1.1560451497941293,-0.582120775621574,0.29175974712034414,35.38584712430588,35.213542676925776,70.47445070526338,0.0,0.09563016715699993,-0.13059288496009874,-0.21306650621962525
103.84199999993939,sand,0.8749500160611452,2.4771975200467278,3.237450397785793,-7.508120846299181,3.98560946520975,5.254281261358261,-0.2572220859300515,3.6686649227324013,6.897809095573339,3.9369776265647105,5.772520189140307,15.885643747628428,-0.16886672311621345,0.6401046855151871,0.6137436113754214,0.2916900738378944,22.114536568365125,32.37633769074244,37.36780244118903,71.49817088536805,0.08097047491713635,-0.11936393556252702,-0.2161341003230965
103.86199999993934,sand,0.8857471842237945,3.685464921900237,6.412966129067935,-6.72889374020442,2.98303238978053,3.877777918739582,0.14621977228014155,2.1834048610284555,6.5900053483747865,4.374695091501151,5.921140924603904,15.795504992973115,-1.9891257979795034,-0.3018285988696938,2.270197142423634,0.29191297329218563,51.46969153477769,22.613875741404662,40.59772942436362,71.66637697078892,0.06727224474031014,-0.11130070807516228,-0.2176754364767367
103.8819999999393,sand,0.7252807712045388,4.187941209495248,7.190032256826827,-5.275952241158572,1.8720850178599129,2.3740299370211,0.10949627091353942,0.9458841333965009,6.069729067002149,4.2214650645878065,6.661926029150284,15.003943341759053,-2.008073464365241,-0.6298649907936753,1.2711789666926006,0.292961610822722,50.83232218918416,12.597714965118687,41.01198326511426,65.37860620035084,0.054366319715182854,-0.10765004197728331,-0.21890277757461857
103.90199999993925,sand,0.4212809704383875,5.566442416572949,6.120250289483271,-3.9238180969941383,0.909008472002696,1.456981962928651,-0.18632224594057456,-0.08964596055409135,5.724978003833812,3.8441805234138418,7.738228869339669,14.322833457626032,-0.9436821495157134,-0.537806988818479,-0.3507546552441223,0.2944401571051133,35.365402858371894,6.800922547978888,42.34418393417927,60.078816223697316,0.041283544420877484,-0.10662954444158111,-0.22001788452358056
103.9219999999392,sand,0.12006002890917622,6.835480873655464,5.915303437323074,-2.584351141880406,0.023301187219476216,0.4749838430248352,-0.5421416245461214,-1.0994686931022897,5.666761900089536,3.4682109137265846,8.914957868552488,14.049271086217448,-0.4117974337449331,-0.7044964920766037,-1.0451123450173458,0.29576146029186645,30.444364612259843,45.60709998597979,57.904587987117395,0.0,0.028101568277777527,-0.106169675582583,-0.22089038473787148
103.94199999993916,sand,0.08150486225422382,7.961404680492635,6.1853695545558525,-2.2283621102590754,-0.4237191691502329,0.33805869607307293,-0.706601820958837,-2.1765589259350566,5.700561549319535,3.3352116827560145,9.995667146202848,14.068723367210534,-0.18661448217094767,-0.7480044304194555,-0.7282087949234077,0.296702244860332,30.066105202298257,49.39596301725881,58.236181363331454,0.0,0.015419186390756442,-0.10536260437572438,-0.22146405601228117
103.96199999993911,sand,0.23336753040528285,9.035886217080325,6.524928713592162,-2.115822500635477,-0.7125802526311844,0.24050459490297482,-0.7993726067234544,-3.2818093437899787,5.676277258762154,3.3230798148449425,10.94714283089585,14.184676204400322,-0.06700503749308831,-0.7683309965499363,-0.4225234728750055,0.29736336559405663,30.34498813746092,52.459556316310135,59.36919285210085,0.0,0.0041106112681070705,-0.10446868699580625,-0.22145362487243495
103.98199999993906,sand,0.4091835148939546,10.092332293372131,6.803629778152053,-2.0311133891321846,-0.9797053978030763,0.17329401603826444,-0.9154071811686426,-4.425565203307727,5.6136584633879245,3.3079153984735794,11.844595758749042,14.283141567198493,0.058896572046801335,-0.7442508295094539,-0.2304212980924405,0.29786000611642816,30.37603837359953,54.4414793452074,60.3034895801271,0.0,-0.005855771586409864,-0.10354356125884526,-0.22079277005212436
104.00199999993902,sand,0.5622523511446882,11.064442600405092,7.055311603151789,-1.9580623732702667,-1.2272913500689202,0.1362478083512707,-1.053590718104939,-5.638344320523737,5.52739370847284,3.2739863233329523,12.687779633854383,14.350279391242482,0.15035367062511173,-0.7194767534250384,-0.0703324991516191,0.2982694966124299,30.105041562550124,56.48261521603192,60.946643617207215,0.0,-0.014661174060696107,-0.10269357641293586,-0.21955002614984168
104.02199999993897,sand,0.38285199527879465,10.324511439050582,-0.49539061895891834,-1.6145925939178492,0.2674469519830085,-4.215775437611244,-1.5448484739434016,-2.2020931519413542,-3.926020686653116,3.172513495838165,15.653811438529731,1.8704339423979643,0.9079020478723602,-0.2897182159903474,-5.7761040195999245,0.29673643650298975,14.871730292223221,17.948127632648724,26.877752868876087,0.0,-0.0251780863068955,-0.10942452876964176,-0.21675002143068686
104.04199999993892,sand,0.596344351043335,9.842668580256298,-0.12107617394224057,-1.34172093294409,-0.3976188439470112,-3.640221971050602,-2.0610743057620713,-4.019812431916096,-2.7602836001774733,3.124511434838815,15.492694622166225,2.5606390827417513,0.45369708636332695,-0.4057870525838802,-4.981050361678896,0.29287616871691896,15.218040198750996,27.78914927498479,29.396663315452177,0.0,-0.03606663372623333,-0.12159135670765124,-0.21141884963614843
104.06199999993888,sand,1.0999357446928824,10.34962467331469,0.9312973103934272,-1.2897997008946316,-0.8257216828135203,-3.1639316186936206,-2.69713452297713,-5.9554713026362105,-1.2962521819349018,3.371973007524298,16.45084657596565,4.809176764996442,-0.11077896339949703,-0.17240207979398287,-2.8427132681869214,0.2871100604855562,18.940908104168273,40.09386596586526,45.843521158664515,0.0,-0.045809282117808936,-0.13540294517154874,-0.20315591586341913
104.08199999993883,sand,1.5644923135387936,11.839110820638671,2.6650340442235088,-1.3657308068309335,-1.0256312587105914,-2.685175423288766,-3.427514395153088,-7.953203380716136,0.5537940372484478,3.527526789462475,17.52624570474648,8.065548242005963,-0.6711011324858965,0.07754849091591995,-0.11722488920563288,0.28033371645298655,26.266827597879743,55.05057657677198,63.793962595211234,0.0,-0.05487434860720925,-0.14643187065708432,-0.19273514813888742
104.10199999993878,sand,2.671781627639641,13.821421135306139,4.9141396834910935,-1.432117048991972,-1.4426783960832368,-2.304620324678748,-4.033367659925933,-9.746661267787939,2.4395593561920244,3.7718579475415,18.982477618199347,9.199160280929604,-0.48111919753593746,-0.6321305803307569,1.369508823721793,0.27353784570661804,37.152956704121955,65.79400746622741,63.38738350110621,0.0,-0.06247807117545441,-0.15228908945418737,-0.18060452087622655
104.12199999993874,sand,3.9350958086427963,15.440506293325257,6.983893862817064,-1.6458371793656934,-1.8276226426623676,-1.9736622138095306,-4.598258800042139,-10.684855999043984,3.6717287197306483,3.806939420859897,19.513675064380255,10.090012749330574,-0.21565831609728037,-0.9197146313802769,2.1349452194338974,0.2672963664494463,46.76977370142553,67.00331738516199,64.71294247989869,0.0,-0.06805000473136429,-0.1556273983356161,-0.16683327536343376
104.14199999993869,sand,4.536014154238508,16.096149425157215,7.994832214870682,-1.7298642342176955,-2.112682159691781,-1.6035778418258446,-4.988385703181802,-10.935783691712427,4.643156408785636,3.7239823569567965,19.547805960303677,11.171544316890255,-0.07988241728030958,-0.7682458971733485,2.4292219068357164,0.2619038871431611,49.10319384749385,66.01550245706257,68.34252276234105,0.0,-0.07235918805035037,-0.15938295027693117,-0.1527900470459676
104.16199999993864,sand,4.536053788761029,16.00793773258903,8.241309175664405,-1.7196690104763683,-2.361314333942393,-1.2263707407657767,-5.1348199317124275,-10.682384376989468,5.42853852650905,3.6518321412006847,19.438571762134078,12.222632028456157,0.08063938331658933,-0.4264769255831144,2.3179598008621376,0.257457946743982,47.216364062599084,63.05098540880374,71.8720696214396,0.0,-0.07577279662459033,-0.1643714420307134,-0.13935188874080032
104.1819999999386,sand,4.341397260408636,15.560556195905956,8.269467983245299,-1.6855608195103238,-2.5699395195935786,-0.8608820739267882,-5.104627311592946,-10.252383524471568,6.12423368552283,3.623128549507777,19.24216663230454,13.177957158250836,0.17046853568143183,-0.08325158558822744,2.121336178447825,0.2539174913502946,44.77419267380794,59.82475562200264,74.84103956431547,0.0,-0.07856016861740761,-0.17060350766030022,-0.12677042748093575
104.20199999993855,sand,4.1311484512872045,15.02851182720728,8.263751308905007,-1.659804295354895,-2.7449622344455165,-0.38656028532782205,-5.00238469522623,-9.781573677571547,6.781487903655047,3.6004624516118713,18.992545857621554,14.012462360335768,0.21717097771062713,0.20179555315543685,1.9040668523909874,0.2512052442893173,42.52742326584274,56.979831106026616,77.07313923674012,0.0,-0.08108425079900773,-0.17787051623687225,-0.11507352011499401
104.2219999999385,sand,3.948670650088843,14.503297874257976,8.263468193750704,-1.627036036432051,-2.8679926119272725,0.11545260910009625,-4.879055203443382,-9.313236836287395,7.418496309556761,3.5691907106971787,18.699118430019986,14.717765181788153,0.23854343296582844,0.431123054390673,1.7102125937387214,0.24923808277472015,40.56037937392557,54.68274734893086,78.53317855773079,0.0,-0.08374250408464612,-0.18592080930613927,-0.10423138078436256
104.24199999993846,sand,3.7828150785586225,14.011601842958267,8.274782216263173,-1.6027938874869387,-2.965795662087192,0.4319796571338641,-4.771747349046416,-8.852109547932715,8.042157272237064,3.492334249330824,18.36642921726289,15.290089682820723,0.23852725168625663,0.5960648696910031,1.5123515706135655,0.2479375614225826,38.863555473711344,52.92545729401293,79.25283976878617,0.0,-0.08696512298274166,-0.19453696541653617,-0.09418391817457825
104.26199999993841,sand,3.632768850970444,13.542849798442603,8.284911019714434,-1.5830728546159463,-3.037005262264162,0.723959623977902,-4.639240254766488,-8.349260155598538,8.847184079540364,3.3860328189965134,17.976153027163797,15.762849571159833,0.24591646580143744,0.7481288688601567,1.2655480156545484,0.24721900564489904,37.34352414205489,50.76293139539101,79.43680955473188,0.0,-0.09111400054161875,-0.20356929038113847,-0.08487396490985336
104.28199999993836,sand,3.5176013788024703,13.111602058061154,8.297157890498376,-1.553527464067636,-3.0774290628897507,0.9958388325217764,-4.522965800276413,-7.870934555505379,9.41486799679744,3.280059676509838,17.549135656469325,16.141343580728133,0.20081438375852653,0.8405234170668568,1.06928561681139,0.24699089547566716,36.06641205034091,49.67516360855787,79.09301466245232,0.0,-0.09644363598412686,-0.21294871861280276,-0.07627673549525828
104.30199999993832,sand,3.4395602059615515,12.644195111576808,8.488815796159681,-1.5141113800103394,-3.0902825733842096,1.2478200548214051,-4.432613177686536,-7.401637126511984,10.002456998192446,3.1787010337799493,17.123851443858783,16.40851451220621,0.13369993800256036,0.8885728060440778,0.8572726547842077,0.24717443118153212,34.56931116642446,49.18351207656132,78.12765991256856,0.0,-0.10301123415988575,-0.22249430559357514,-0.06825577446246062
104.32199999993827,sand,3.4214999658421705,12.277650487843871,8.56616040785111,-1.4801060944206363,-3.0850438138179204,1.4725876844021886,-4.357679489338109,-6.933032529469045,10.575867148955034,3.0826263794607707,16.68690367690195,16.574034564764325,0.06724792389575057,0.9001476461310168,0.7155171976530436,0.24769370192480428,33.88684431925718,49.005037343529246,76.83145808169886,0.0,-0.11077798707360528,-0.23198236074625356,-0.060547372886669525
104.34199999993822,sand,4.738024134530312,12.990901453179976,9.1728940540827,-0.4606989438254483,-2.7894419370819623,2.0230475811941675,-5.736989969464551,-13.274843617159076,8.977979452213695,4.299794435588091,17.98356952529464,15.059985891359313,1.6667312303861,-1.9504668185833873,4.061155973255897,0.24892439191084412,40.02463731149118,65.93681112550817,30.08127998115891,62.69464293565525,-0.1163079510535627,-0.23828538295309454,-0.052441441794560194
104.36199999993818,sand,4.453098750040021,12.329548808624251,9.44406171597908,-1.4078269071223886,-3.1997811898520414,1.7861337059401023,-4.739420436568493,-7.875828099428773,9.054179407444837,3.4208677245729566,16.77595992992071,14.673014529783948,2.502287064289951,-1.089424303545337,2.083331487656313,0.25159060959161306,38.16457042457852,56.94020324047416,28.244795801820608,58.59166904754871,-0.11675680802271632,-0.2369064355446119,-0.04188432314954433
104.38199999993813,sand,4.54301565509249,11.808083164471622,9.271219201859994,-1.2289006750003826,-3.0143537261530575,2.0553834722078097,-4.8073021779515175,-8.6129388995302,8.749320184046555,3.0546219276885784,15.620036785496414,14.833120125663244,1.5862359251229776,-0.4393438464725255,1.2672758642434263,0.254513056725711,37.002977834421436,43.38226099117106,28.201509507380205,59.52017908016899,-0.11800364062672022,-0.23594391046394736,-0.030397382913326658
104.40199999993808,sand,4.561352623133703,11.379747476901514,9.190220316016552,-1.1836538827983845,-2.8918505029601524,2.194615124782154,-4.681242219612512,-8.057062770811235,8.909210604630768,2.790540352650436,14.747317383620638,14.966142268050849,0.43780668299623604,0.5317679747967065,-1.1835705511469945,0.2575349143394927,35.967742551147296,33.42963094931029,60.14425871543202,0.0,-0.12002510778082803,-0.23489268174884026,-0.01910681254377919
104.42199999993804,sand,4.417798010124807,10.929988766999067,9.11668428221083,-1.3031807490719314,-2.835492808603754,2.2083663303378795,-4.311011384452486,-5.934194189672626,9.704548682864639,2.347754991261685,13.783518324490252,15.06203135903302,1.84129994322343,-0.5152837985280423,2.2865502890046487,0.26053453041197483,35.48675467760836,62.18929363095365,28.42431515728198,59.81759039588223,-0.12301167004428841,-0.23370004259012006,-0.008534651256641403
104.44199999993799,sand,4.710499260704475,10.77260571901425,9.134373291636859,-1.0890819642930984,-2.630775494825002,2.4157781708183563,-4.563379691491294,-7.194022186438277,9.524030878860533,2.306537463373938,13.27118830698495,14.740339586132208,0.9688052262566355,-0.10630583461537899,0.9110239939302748,0.2634422199873662,35.96368112436391,37.051668866573635,31.18167075497141,57.83096492545891,-0.1267966988094112,-0.2322417038455525,0.0011685558349945643
104.46199999993794,sand,4.826496289762196,10.51433057123106,9.223913176274433,-1.1649729298537101,-2.5336712901637304,2.3939471478383636,-4.381411400918643,-5.694255693556017,10.178575119114786,2.086131772427152,12.61599171049645,14.509556590625317,0.3556756556930333,0.5568613434250257,-1.2487154284332147,0.26618867876968,36.20437582441726,37.52056669330744,56.98006686641562,0.0,-0.13147606500894482,-0.23064894847276105,0.00997673226685219
104.4819999999379,sand,4.9677465975724955,10.226608563344053,9.255683924155118,-1.2124676092044722,-2.4227788551889304,2.426490322532084,-4.326837668011251,-4.986131384958573,10.80518143955199,1.8597749739079963,11.906228999289134,14.252699396809897,0.20048677787281297,0.4951942546888152,-1.0973021282289213,0.2687383249018801,37.24557126771813,40.39109228549488,55.7731738788915,0.0,-0.1369272022672158,-0.22901864303666347,0.017920235006736642
104.50199999993785,sand,5.311119363682065,9.919454564535645,9.340996167334167,-1.041040656002535,-2.176925445675476,2.5592388516293685,-4.530683852915696,-5.830464880100243,10.97173306809098,1.8660495889738682,11.449403773910538,13.762265467781486,-0.2058417535098104,0.23910457421547437,-0.8995074509177764,0.2710832169704452,39.686727784465255,42.50254433469161,53.21632968149969,0.0,-0.14285284681346236,-0.22742730378690537,0.025117022474078946
104.5219999999378,sand,5.498561186485822,9.42224155080892,9.358149583337905,-1.0491554724939296,-2.004048114132587,2.5666636763592816,-4.49497742629052,-5.315995324469447,11.554353018160175,1.7861486332842351,10.87921620494696,13.331663085581752,-0.423156167634174,0.06981961184148795,-0.7011502965533434,0.2732515478933137,41.53501111942995,45.61718379521435,51.31861037771168,0.0,-0.14884110476657392,-0.22586123998810217,0.03186081171768843
104.54199999993776,sand,5.565516261361175,8.89046339026881,9.26690514846445,-1.2436499492392032,-1.91120004350286,2.4722423499887523,-4.362156533745338,-3.844473241530192,12.478732433762012,1.5734177180860387,10.206821832767115,12.971049397395422,-0.5004277872792223,0.0021013229129815754,-0.48074290582105766,0.2752674643110902,42.38794359570996,49.67678176898532,50.023884560987675,0.0,-0.15457399466933233,-0.22422877719609355,0.03848636499097872
104.56199999993771,sand,5.834184550097833,8.550313761335095,9.11084622383576,-1.250607284368995,-1.7150144089252937,2.456555552814443,-4.386762915674215,-3.4953947558317466,13.039923323168377,1.4822996582404808,9.751913846756757,12.469012602629272,-0.6543110170103835,-0.17283677755602642,-0.3558215116889084,0.2770948617542168,42.751044599215845,53.081671415924916,47.800885535874656,0.0,-0.16000986671665635,-0.22264213227062077,0.045201993935955004
104.58199999993766,sand,6.2033352296442015,8.353630272493701,8.959072375398716,-1.2260410470813083,-1.5284727509438278,2.4216226876668943,-4.40130834868256,-3.1775801570275224,13.645582028571079,1.3736841832286306,9.411787365174945,11.873415951573854,-0.7429577876594998,-0.39935961404035336,-0.27057731307658867,0.2787827485379686,42.93232529119477,56.86822838199269,44.769631358609224,0.0,-0.16469574366509054,-0.22051859424190423,0.05235181251887233
104.60199999993762,sand,6.641586981600673,8.26003360783417,8.792397435018453,-1.208522602347289,-1.3436020292863193,2.3699299210084357,-4.410384156125799,-2.8827710922314473,14.251316039682,1.2143388996392366,9.10386639886029,11.230069672749748,-0.802206514486585,-0.6424091884948009,-0.1964919383248164,0.28036415036612744,43.17622964906474,60.76061204766639,41.48488120980042,0.0,-0.16831562472331277,-0.21755283713084533,0.060284982828391474
104.62199999993757,sand,7.116533369972616,8.272148475926357,8.526591474224693,-1.2041242957410798,-1.1579236389671927,2.302100271978351,-4.413584132954653,-2.617040917983335,14.825528449515087,1.005977438199784,8.777882907338187,10.584221244703153,-0.8514937351248165,-0.884582807602684,-0.0927936951264009,0.28187094109728095,43.892576085102746,64.59773804415522,38.34756685633745,0.0,-0.17059671222500247,-0.21360474516530975,0.06927477621664256
104.64199999993752,sand,7.591117860640944,8.283384974207397,8.347784635253241,-1.1995131039208313,-0.9614944837462107,2.2265816385510657,-4.409966621756958,-2.365753527755791,15.339922829257109,0.7408280193318886,8.44157456246895,9.942566344519278,-0.8872419569733795,-1.1113157182684927,-0.060744568043168405,0.2833377488485708,43.78510236753888,68.19171342450552,35.31996389879454,0.0,-0.1713388588235174,-0.20857673769022528,0.07949848678582037
104.66199999993748,sand,8.000802210153832,8.289855373471793,8.215859745262192,-1.1925078953957156,-0.760870344532252,2.142208403985318,-4.3947473715923895,-2.088404938536664,15.787427215898727,0.440202409092179,8.086158723951439,9.307939378515318,-0.8983142015856812,-1.327531093974589,-0.04501573391777825,0.28478032866635133,43.706970684453125,71.43562514332451,32.44720739801353,0.0,-0.1704093574003598,-0.20227535820172027,0.09109196228894047
104.68199999993743,sand,8.312332089892447,8.211835403589381,8.074497520806567,-1.196644648499484,-0.5687745247193996,2.0443259464726733,-4.3152464167636575,-1.522160614104119,16.094168805289314,0.1976471259622441,7.648778729863178,8.695650763601947,-0.7861548604019385,-1.4584318173563744,-0.10569547332595956,0.28620199619263526,43.63601300019597,73.34881204276927,30.036200172386252,0.0,-0.1676020772856312,-0.1946404517537306,0.10404586924404163
104.70199999993739,sand,8.458404803479171,7.926950296159831,7.806059327161879,-1.204663893805389,-0.39612950529390223,1.9296995742170528,-4.214149120618452,-0.5306118740364489,16.13101296434775,0.041044993338075875,7.098419261244904,8.149728290590119,-0.5262414208556025,-1.455303169037018,-0.31872039051571255,0.28757019964797087,42.883973172113826,72.93463768925487,28.4567554017876,0.0,-0.162741578244428,-0.1860750766124762,0.1178896165576389
104.72199999993734,sand,8.455906246886073,7.448249066512028,7.405337616694353,-1.207351538929864,-0.21553208919747346,1.8160864295086778,-4.098277234679841,0.48052303747763414,16.034511771215406,-0.08070786137754582,6.541840374891594,7.743475472101805,-0.3184705291899692,-1.393758117378634,-0.5154496199748678,0.28880383030863416,41.5173649704624,71.97823456822844,28.039711360367075,0.0,-0.15583146637232104,-0.17721685922511252,0.13178965196516182
104.74199999993729,sand,8.367479862965553,6.901124992597264,6.978479469574129,-1.208796317759004,0.17890520938282226,1.6920610384789656,-3.9591507202724614,1.4370480178249645,15.987762222418052,-0.16277635133731627,6.0518778986320925,7.5186334104462285,-0.1941899872679176,-1.3290574547478498,-0.5928105467017089,0.2898315857919753,40.047140571800675,71.58058421835983,28.933598279116165,0.0,-0.146948696608202,-0.1682997835868774,0.1449656397591354
104.76199999993725,sand,8.213007326743295,6.356068909268364,6.576054394153093,-1.2107563954565588,0.49215236549281455,1.5969558429844852,-3.842526879089919,2.379628581086495,15.958825776602811,-0.18418064645167564,5.662459783428937,7.288679411228128,-0.02883573379641458,-1.2090557646978501,-0.5416172820527537,0.29063373761777883,38.586962675339684,71.27114480266214,31.605744398364028,0.0,-0.13634788689835692,-0.15916816489960298,0.15678061066457205
104.7819999999372,sand,8.02196975613889,5.820681182357536,6.211134557033871,-1.213549445666197,0.6966400734322151,1.4860579006277783,-3.772271895062821,3.311616093617939,15.92087115794394,-0.11017405752543163,5.214953850267612,7.224537674117362,0.09697874913043955,-1.1527273798239255,-0.5465605860293589,0.2912218787682938,37.25375981819398,70.87636247344918,33.31937481169247,0.0,-0.12439628676569535,-0.14960504867611477,0.1667444371300799
104.80199999993715,sand,7.839097400107249,5.286294021320173,5.8840492808519365,-1.2146035601474772,0.8838055890690386,1.3734042195013436,-3.753098676087918,4.217744603335724,15.885773279575561,0.01452184443897453,4.7866894560298885,7.1065249536279875,0.21242437581444953,-1.1494821792558274,-0.5757089920589048,0.29159206317445074,36.153466096128255,70.56557831779122,34.301205655365635,0.0,-0.11135634580347185,-0.13948967331884224,0.1745303550986074
104.8219999999371,sand,7.665977208221582,4.651502388890266,5.653614473816457,-1.2139581664795698,1.0591248349055045,1.2614782574701162,-3.781177419304343,5.080166609523618,15.859042508199842,0.17481884888628912,4.3318597803916505,6.979088732530414,0.32685713063924815,-1.1691721557386727,-0.58253150572083,0.2917338352310946,35.39918135952889,70.43744724271943,35.237599923117564,0.0,-0.09735831045094283,-0.12881784576207866,0.17997170691809936
104.84199999993706,sand,7.5040391527713615,3.980861733883167,5.254559398319055,-0.8739791254001791,2.473755646274597,3.244889945495594,-3.9487006476208237,5.772081590221493,15.87844477042381,0.26820456303039,3.6687611121650363,6.902179467657494,-0.1968625309671616,-0.6326862019837284,0.6215034847060907,0.2916640077226157,32.3797337577927,22.26081488419427,71.46332474091028,37.384795317505414,-0.08255313487458393,-0.11783540523520221,0.18304260379546736
104.86199999993701,sand,6.719993862030626,2.977903679241739,3.870756434800967,-0.8862108405606897,3.6668354143930375,6.450857123815814,-4.389451312888822,5.918243968270859,15.78597301502813,-0.13978035712301434,2.181181418988315,6.590557952872627,-2.001375341975678,0.3774499557136705,2.2898005095627507,0.29189095090301626,22.544824341468566,51.89501054578203,71.61701258501628,40.590721328170545,-0.06877463090176777,-0.110022203701945,0.18458843237476075
104.88199999993697,sand,5.262181024458963,1.8656748959046057,2.3657733803691823,-0.722256401521379,4.18492159925728,7.1832317004176724,-4.23143307454685,6.661143874065315,14.992470024665035,-0.09931956026385297,0.9447238556244646,6.068932877336726,-1.981652492223746,0.6926623254894977,1.2542099302010974,0.292947663166914,12.53549453480382,50.71101831859762,65.30981856646511,40.99556305248177,-0.055859534834124654,-0.1066249137395815,0.18582533311334615
104.90199999993692,sand,3.9141995313857976,0.9041457372251357,1.4531589620942906,-0.4164208161603803,5.567167000301064,6.1102118976962085,-3.852037567297952,7.739825463087982,14.314483914676615,0.19888024718588151,-0.08903247470964293,5.727071170572835,-0.9192085557066392,0.5662645165119997,-0.36237435308808086,0.29442877037357673,6.7723459587466985,35.25719556633705,60.03376881383892,42.34711266455938,-0.042798735282941154,-0.10583588001847795,0.1869491728930823
104.92199999993687,sand,2.5807464230935246,0.021161850603091725,0.47439009654388076,-0.11763153891267342,6.8351102027072,5.911618187406486,-3.4782741256793552,8.916193589413734,14.044874812116966,0.5532327385803384,-1.0984285096652862,5.6705657660340005,-0.385420401386242,0.7161977465730299,-1.0477344352261606,0.295748470989223,30.400538293244203,57.8911674511806,45.621200965082764,0.0,-0.02965156336129466,-0.10559547740730515,0.1878271134886298
104.94199999993683,sand,2.226468176003962,-0.42489908698546874,0.33747431589366084,-0.08008330742472136,7.960225708389297,6.184967024565519,-3.3463523953257575,9.996458878641198,14.066514512397312,0.716904419048444,-2.1753657247880858,5.704775181396364,-0.16095701538840798,0.7528220679262535,-0.727863003379828,0.2966866517285317,30.05414663234419,58.238044728462945,49.410744809395204,0.0,-0.017001551329919515,-0.10499725461954006,0.18840419908463935
104.96199999993678,sand,2.1143945897765275,-0.7135448632428196,0.23993564299222037,-0.23200922023797443,9.034557862890063,6.525683536716474,-3.3345153753851924,10.947910074645415,14.18325713745147,0.8094020851143549,-3.2802781195066832,5.680185750834779,-0.0415806544480743,0.769383246255492,-0.421399179810861,0.29734530520361985,30.346749584047362,59.37479745059948,52.46918544906755,0.0,-0.005720793943933443,-0.10428875391904535,0.18839696175303605
104.98199999993673,sand,2.029946044524856,-0.9805461256984529,0.17276160259366757,-0.40758081868865675,10.091005509284377,6.804136380400433,-3.3194144818327525,11.845132817830414,14.28219383281588,0.9252536634677625,-4.424321245251068,5.617516816592077,0.0829753151701924,0.7410517671107167,-0.2293763910025801,0.2978398996340582,30.38135610323593,60.31141090000212,54.444174709589205,0.0,0.004222373106572787,-0.10352822651189202,0.18773973346559486
105.00199999993669,sand,1.9569537104025172,-1.228006631186748,0.13580234010259606,-0.5605617543897813,11.06368884626892,7.055494643959996,-3.285527345428969,12.688565399470402,14.349499425544304,1.0633147615101746,-5.6364851954420185,5.530550866418192,0.17356229403463558,0.7133029928187018,-0.06967649360207938,0.2982477467963331,30.106541727951097,60.95353852461018,56.48419836430018,0.0,0.013007306685023602,-0.10282474377006424,0.18650101238242345
105.02199999993664,sand,1.613710578559473,0.2667978597262375,-4.216226117097628,-0.38083449272619285,10.324677525625361,-0.4948943675712769,-3.179961296928216,15.65511685204155,1.8693985824161636,1.5527304072368349,-2.201800752145406,-3.9238540504261046,0.9172293609868748,0.258627072582332,-5.7754691356099315,0.2967134879317506,14.87277137345429,26.880487847076846,17.954138125049326,0.0,0.02338799773435449,-0.10971701582803955,0.18370377081092606
105.04199999993659,sand,1.340630224900523,-0.3987746765348837,-3.640661147870791,-0.5948512551532926,9.84287990414004,-0.12070545898450646,-3.132379430171443,15.494067219312713,2.5597399858871412,2.0690435521398522,-4.019285263836839,-2.757890193571681,0.4668565708207504,0.39006183862506844,-4.9804578238064945,0.2928522435878291,15.218363296520124,29.400739017793885,27.79562587762735,0.0,0.034052013529428334,-0.12204505314115928,0.1783732829435066
105.06199999993655,sand,1.2889351511265446,-0.8262235483028197,-3.1642393246746483,-1.0988295049524242,10.350134882819578,0.9317467251106866,-3.38161653666364,16.451645235829318,4.80899400278358,2.7058552422163227,-5.9550301815653395,-1.29326401685449,-0.10569161155875256,0.17567349989407002,-2.841276549035076,0.2870854382715465,18.94185657179216,45.85641715117562,40.105345227262376,0.0,0.043544936447826435,-0.13600044047161267,0.17010973409584632
105.0819999999365,sand,1.3646982074368552,-1.026200269685683,-2.6854276154756365,-1.5640379168349927,11.839979926030791,2.6656351239023053,-3.5388840705789875,17.527224109586122,8.06473088459895,3.4367979077911293,-7.952200435142092,0.5570179695418176,-0.6736126294677129,-0.055170258516933655,-0.1164865431933851,0.2803089111477368,26.269229705386202,63.797723854062234,55.055933246391795,0.0,0.052407187823388435,-0.14716983648212906,0.15968803760648917
105.10199999993645,sand,1.4316742773096656,-1.4431980467541505,-2.3049540458532753,-2.670900714359873,13.8216848523147,4.91420668316953,-3.783727599444324,18.98261075072206,9.198576575776594,4.0431688068898275,-9.743043757664623,2.441453693740245,-0.45969291601282786,0.6469238392259913,1.3687560152427531,0.27351307373734607,37.15101626900875,63.39692664376043,65.77598331254768,0.0,0.059894559079374375,-0.15315795489666625,0.14755698019136002
105.1219999999364,sand,1.6454198804746794,-1.8279899656140364,-1.9739251426471967,-3.9325443425902744,15.439739675022967,6.982538967620689,-3.8182693425265795,19.513124547754206,10.090492239676625,4.608180696743357,-10.681104173192752,3.67317530360698,-0.18528472284058084,0.9244828442286839,2.1341610631399663,0.26727132155493244,46.75777942630293,64.73065687512126,66.98654916558674,0.0,0.06540076455140856,-0.15660447931458324,0.1337877678123871
105.14199999993636,sand,1.7293592073132353,-2.1130001779647305,-1.6037862507787914,-4.532737058790671,16.095431465858173,7.993325653555894,-3.7350798215373633,19.54764558956702,11.172296885710491,4.99783157262301,-10.931638365738138,4.645153385686179,-0.05447998782186624,0.7686929867507099,2.4287868731320774,0.26187821669462247,49.09108651386559,68.35969075239964,66.00372750353849,0.0,0.06964438665805413,-0.1604482252679317,0.11974804625405908
105.16199999993631,sand,1.7192300979186896,-2.3616165176905337,-1.22657236305479,-4.532879096910856,16.00763476892599,8.240287367505003,-3.6626225714605813,19.438684528374168,12.223226934226942,5.143722706489647,-10.678782428986157,5.430921399685936,0.09453315452544724,0.4221939283112479,2.3179990594868083,0.2574314984944398,47.2080312279022,71.88605899418054,63.04544593501217,0.0,0.07297663101313626,-0.1655077401541016,0.10631315477528508
105.18199999993627,sand,1.6851480982085767,-2.5702298119385647,-0.8610684534090591,-4.338678643996484,15.560703576743368,8.268854581637957,-3.6337302364987916,19.24242488126118,13.17835307001239,5.11298464524648,-10.249317459828731,6.126903471906925,0.17286839955171435,0.0764788646082204,2.1216621131240725,0.253890288390758,44.7687706074614,74.85179015239477,59.82389996252425,0.0,0.07566491681771231,-0.17179836460229975,0.09373392030020353
105.20199999993622,sand,1.6594293891227636,-2.7452306057991036,-0.38690535128485815,-4.128859984054964,15.02892088510347,8.263368056618397,-3.6109340626855246,18.992845270235208,14.012661189571197,5.010239208851814,-9.778883818983577,6.784333420595395,0.21003611292392665,-0.20974694392777954,1.9045174241478693,0.25117741816508177,42.523788736012975,77.08111815993077,56.98190806132946,0.0,0.07807403963422452,-0.17911820521177224,0.08203788267944942
105.22199999993617,sand,1.6268779797023862,-2.8682270859458656,0.115257865795593,-3.9464980641991985,14.503837553784903,8.263215159022778,-3.579191181070059,18.69939849181793,14.717708873438792,4.88670748152742,-9.310804546072646,7.421489171570008,0.22374400396534438,-0.4393634227885823,1.7107199371753279,0.24920981092897643,40.55760859292427,78.53916472205098,54.68700062132983,0.0,0.08060506660690966,-0.18722276384453868,0.07119514154307369
105.24199999993613,sand,1.6025371040844119,-2.966027897047616,0.43182051348762185,-3.7808552773222535,14.012300885057396,8.274594544970594,-3.501675726118746,18.366579265054394,15.28983450035475,4.779159943725465,-8.849852983822421,8.045310045723678,0.2181774611340908,-0.6041975109795195,1.5128944060269005,0.24790904573234984,38.86152908899235,79.2567345080048,52.93154545951908,0.0,0.08369279137145896,-0.19590201184785677,0.06114539319225332
105.26199999993608,sand,1.582830590214076,-3.037223664417332,0.7238151128286496,-3.631059174082294,13.54360695776847,8.284754335127824,-3.3949018442723773,17.976161364392468,15.76237461082982,4.646337077617018,-8.347126788357873,8.850409875791065,0.2204616297657514,-0.7563742480640491,1.2660543873913546,0.24719046448055676,37.341996048384864,79.4386494316307,50.770100598462115,0.0,0.08770007603369812,-0.20501247547748955,0.051831371767631425
105.28199999993603,sand,1.5532954412726452,-3.0776328531740056,0.9957095394192801,-3.5161189016355374,13.112332952226616,8.296964631251608,-3.2884872680973856,17.54898702512918,16.140639648506774,4.529735575810382,-7.868821859270938,9.418149340112862,0.17227580914918353,-0.8471970408553043,1.0697001932721188,0.24696252676514002,36.06499774014415,79.09309861781587,49.68265233548033,0.0,0.09288226817680525,-0.21448936857333523,0.0432283867103919
105.30199999993599,sand,1.5138852297168697,-3.0904714194886562,1.247706306613972,-3.438301493376679,12.64482417471011,8.488591213389924,-3.186730589966801,17.123554255215744,16.407589096641214,4.439058971270129,-7.399487018365207,10.005761132275497,0.10355603019615012,-0.8929578618005947,0.8575987317136656,0.2471463948037531,34.56787306865555,78.12636723949167,49.191017648755626,0.0,0.09929957828606309,-0.22415295469634336,0.03520011668921725
