time,terrain,torque_0,torque_1,torque_2,torque_3,torque_4,torque_5,torque_6,torque_7,torque_8,torque_9,torque_10,torque_11,accel_x,accel_y,accel_z,height,contact_0,contact_1,contact_2,contact_3,roll,pitch,yaw
0.0,hard,0.0,0.0,0.0,0.0,0.0,0.0,0.0,0.0,0.0,0.0,0.0,0.0,0.0,0.0,0.0,0.445,0.0,0.0,0.0,0.0,0.0,0.0,0.0
0.020000000000000004,hard,-0.5553521044959175,0.010706157924637694,11.252270214128956,0.22031486685121981,3.1976722216707785,-1.9069093594719106,0.5450424570728157,7.805980449631246,-6.1529566159159685,-0.22040580010881786,3.28725966584307,11.51781983494972,-5.451193167289442,0.04296780848648538,-6.4437319381916325,0.44415508457588154,27.38069903259445,21.834635478770647,2.721874024320755,10.256460922556512,-0.00018306348663298103,0.00945174385678827,-0.00024793930237926174
0.04000000000000002,hard,-0.1912289207832248,7.251149966712074,6.034295552473374,0.0883800814000886,8.04768757604279,-8.042789575136304,0.3473566962511522,9.85801427872154,-13.702545859334656,-0.20781464317659695,9.471159819181594,6.289142574712635,-0.3270565871756937,-0.07979575479008152,-8.311792061851015,0.4405754909842711,13.481336607372569,10.203487809398293,0.0,0.0,-0.0003421615970668857,0.035343488789131745,-0.0005905039547013446
0.06000000000000004,hard,-0.06451477015389795,12.763691898059335,-7.03416751692356,0.054416120596604216,7.560613597880746,-15.330659056632292,0.028004978835948796,6.269434204571063,-17.75999431049287,0.2904278226658247,8.350087813743944,-7.60190944683135,0.569630617430115,-0.32468641157743805,-8.074959125750052,0.4335998885830205,21.00713815024755,6.077203488322933,0.0,0.0,-8.935287472285127e-06,0.05399292027261519,-0.0008059740099864654
0.08000000000000006,hard,-0.08790918993368327,11.382237720384733,-6.517193809316666,0.0736333218434324,3.9421916392818197,-14.496257108715028,0.10975198161072881,4.946761609802838,-15.70683394545231,0.24032981274519688,6.816524678913417,-10.60386191767914,-0.30574395220846157,-0.6349526147833632,-6.83930320738766,0.4233557500190495,37.55722064729845,9.165839703774537,0.0,0.0,0.0015075430704768503,0.06214082883180522,-0.002571818668900124
0.10000000000000007,hard,0.1990851310513179,8.468549364363781,-3.4414784797230844,0.34175901056811864,0.5691397988337794,-13.635449923619447,0.27817813178853756,3.8214095781429354,-13.838342440494145,0.3920256224060959,6.22268255594291,-9.437650524813353,-1.4059947665164185,-1.6014877553200857,-3.2740495922815276,0.4105483667863825,84.84507304920812,14.465647777148394,0.0,0.0,0.006013643752951961,0.06085122591225006,-0.007528827369322699
0.12000000000000009,hard,0.42827572501923694,5.767031764073554,-1.8680641699774547,0.530719246139512,-2.693930255210022,-12.577288879903573,0.35171017730333964,2.993049332754209,-12.090541571295095,0.22507577363901599,5.930357527601728,-8.325296161651917,-2.32456972442939,-1.6421116029965916,-2.17711984810386,0.3964015709844751,90.77911017137961,23.018802929208775,0.0,0.0,0.01548888553752242,0.04845147515244286,-0.016853110377652133
0.1400000000000001,hard,-1.2990036311550226,5.207852867690628,-0.9205667387180618,-1.0595820786235195,-4.978090951364309,-10.964309557881602,0.34506280335518247,2.9415435066171858,-10.449821202765815,2.0738768207311225,5.541235798552478,-1.7710135731665133,-1.4935697100977343,1.0081379301233528,5.324555520858033,0.3816896999437334,81.39695575351867,33.4943005397298,111.60286685719484,0.0,0.025220942337937338,0.02933330714662552,-0.030317089239078752
0.16000000000000011,hard,-4.007009441624538,8.347294985849423,1.7350014826744484,-3.7659759348947253,-3.63770952158084,-7.709213336132734,1.9116021831182963,2.9417915173052283,-9.05948749423068,1.7289116199338976,7.022251960901544,7.267931031740741,0.8225226152792906,2.880561688892649,7.922603718335106,0.3693011861796925,70.98738363454493,40.25185137894999,151.844871853357,0.0,0.025045639800263718,0.021659849782378553,-0.04730223762257874
0.18000000000000013,hard,-3.414794908519095,9.348395602391303,1.904263414916402,-3.2599599375508514,-4.843795211730074,-6.62876266830899,1.0697709537423323,1.2551810162538217,-7.78794168089566,3.0050857983597514,10.12200339240706,4.869043508464671,0.907539228560134,1.48912520407527,1.1354059733203197,0.3595766900303074,50.110167687097594,37.734524519910465,76.08987195702575,0.0,0.0238605090973301,0.02110489424496986,-0.06476158367201093
0.20000000000000015,hard,-3.2056310267673185,9.003976068529468,2.128219997423699,-3.055297334534732,-6.9238257034917385,-6.075370093866354,0.6411206681935585,0.6040463141092434,-6.568326334222128,3.5765333497618776,10.032558066367795,5.139350088227067,0.46907595448847345,1.4726049502919931,0.32414931864375307,0.35037062439461475,42.90735748586451,37.92467824403052,70.14128884192893,0.0,0.02369171321911458,0.016566457250245258,-0.08027584861293464
0.22000000000000017,hard,-3.559303598474112,8.743524767968157,3.2191043706937865,-3.3327971843817386,-8.342035634495288,-5.093510844958814,0.666793155866867,0.1643472632774487,-5.487599853536421,3.7260362070556745,9.711160920505662,7.094061539625487,0.3121958855506573,1.7989973628304632,1.3604471921206351,0.34135012289816447,46.038061903211656,40.62104355204761,80.08455798487934,0.0,0.0213957881680274,0.009638043584207293,-0.09431077703320037
0.24000000000000019,hard,-3.8579601029855675,8.48076368264613,4.545964843344546,-3.4860094435796745,-9.328378241379486,-4.116149542237517,0.7694990832547429,-0.4308114692794164,-4.5581162358078124,4.005456460277893,9.805956734338757,8.629150479313841,0.16392386094107628,1.8139067642535145,1.9054339360211108,0.3328696261502561,51.50172718393029,41.92828108354038,81.76539668625131,0.0,0.0165107120925532,0.0018933538052435346,-0.10745684244978465
0.2600000000000002,hard,-4.114822074665796,8.110154803565095,5.583178717912483,-3.3115612919117634,-9.722188503329381,-3.2342258153672017,0.7347656459410765,-0.8299526011693323,-3.690182196286438,4.312204495152248,9.907142356949855,9.625026531121867,0.14189919460554448,1.6931976481423823,1.8405756480098114,0.3251210257249804,54.60704986954795,40.051544575836246,80.03964638066203,0.0,0.009219953083241103,-0.007195237193408289,-0.1198861066310204
0.2800000000000002,hard,-4.48859252078368,7.586182601474896,6.331831817404199,-2.7231995168759924,-8.854515003587734,-2.4667710531594906,0.6756675726875379,-1.1676088122537491,-2.8978179640674337,4.499557657107156,9.700823126749647,10.601346177511635,0.4884258219303186,1.479385008031061,1.4219606943603094,0.31806457294164303,56.548682693826294,30.90096904096025,81.37188800572649,0.0,-0.0008662461836971473,-0.01836803490215183,-0.13169315997870198
0.3000000000000002,hard,-5.038700142880415,6.834229297652499,7.035957954937336,-2.20864082062421,-7.003389220909542,-1.8568422286611872,0.6713277678766686,-1.4322976931359839,-2.192432753892393,4.562913067389446,9.235520193461479,11.660236764150861,0.8926051790491456,1.2599798967833302,1.176641061169284,0.31155353468054475,60.09237078853842,20.221926111015136,85.23249766489187,0.0,-0.014217821438089683,-0.031651810094311214,-0.14305293806912203
0.32000000000000023,hard,-5.401855095021704,5.827006874045531,7.8617905656534806,-1.5500967037324012,-3.428661999747959,-1.8357815507991053,0.6892422724450827,-1.6496391224562625,-1.560893557507983,4.846884740474081,8.549351788817658,12.790529809498073,1.7649174844672026,0.6535431777403462,0.6147824217565366,0.30546396372384255,66.546960477157,91.22253394147221,0.0,0.0,-0.03028680223309506,-0.04661866137855208,-0.15412108634689736
0.34000000000000025,hard,-5.6499788381027045,4.6755400110761975,8.730642176780023,-1.6009337981595266,-2.908467873315578,-1.2100288139080333,0.7467420280327133,-1.7594123260479866,-1.014503471511078,5.188082132725057,7.806998072515545,13.725493375769473,1.4557001027079508,0.7000481755594028,1.364438126179991,0.29968935791813794,73.99445236443206,95.13541945105607,0.0,0.0,-0.04794871016254975,-0.06259794773911541,-0.16481290940231183
0.36000000000000026,hard,-5.060016504617433,4.820205745521656,9.873623730198208,-1.289116344105843,-2.682729878147594,-0.662775233933409,0.7347630241687336,-4.850137205194816,2.4123865291972084,5.5797364032402195,8.659132356928485,13.35109466195399,-0.22714350412890638,-0.5543017907536194,3.1674347386994834,0.2946543164168775,77.50156653438701,34.30817272042611,81.05960742898917,0.0,-0.06541443505885539,-0.07713373133156583,-0.17409127474756012
0.3800000000000003,hard,-3.921036278141155,6.253092254361869,11.00103305568404,-1.2438288308724383,-2.6547710487942258,-0.05011229511415244,1.0348746487909837,-6.829143118985548,5.5515914200254395,5.290684232889964,10.136554033485734,12.251299831710805,-0.9672166246692411,-1.8157779420097753,3.4989535912539877,0.29088504386950487,74.96481579446368,59.56034591377848,61.67104080862448,0.0,-0.0794694185461159,-0.08685755644896903,-0.17859810569020795
0.4000000000000003,hard,-2.6758757392390335,8.132271839118088,11.664909197753019,-1.2574504325337128,-2.6665763315299884,0.3578716684094836,1.3350658386135472,-7.455054139669074,7.762597629383866,4.501042468950084,11.046449711994974,11.470310878249752,-0.5535627717208682,-2.2198952754435273,2.6936417523994676,0.2884396747238869,66.78829329933434,68.83345063957701,49.26929520342204,0.0,-0.08942086052583616,-0.09197172193221155,-0.17681496915555833
0.4200000000000003,hard,-1.6616996062857612,9.444569485006925,11.717504582845462,-1.3264558328230611,-2.659163075188241,0.6365364117296421,1.227995908037017,-6.992978122467164,8.1730762372595,3.793187730914815,10.863448005369904,11.408477182003239,0.13504474326189844,-1.801439772314344,1.470296375549685,0.2869931852803778,57.707663356310434,63.45957173787845,47.32271049985876,0.0,-0.09564348692414917,-0.09489383421915112,-0.1698634680228695
0.44000000000000034,hard,-1.019581808591504,10.149967032661355,11.647988377902056,-1.3418774713088135,-2.5540717526573395,0.9020018977417386,0.9792659252111443,-6.749687663443817,8.438065027437942,3.2144584844227606,10.32332280271314,11.66604206186927,0.512840589173934,-1.2431616199212616,0.7942383793547546,0.286109698435852,51.89340512549409,58.12255651370029,49.74397804437039,0.0,-0.09970378274834568,-0.09713087096456846,-0.15992117019897198
0.46000000000000035,hard,-0.5232047501249406,10.499108321181271,11.742039525058804,-1.3379804466939005,-2.4023010542762746,1.1370285973185772,0.8765289055632255,-6.68800894193585,9.073355458049303,2.876855815834484,9.926599285164949,11.924921156152468,0.6406894436215985,-0.9760572472163982,0.7094056870793319,0.2855533589763425,48.50789580827091,58.64618364291226,51.572784452565614,0.0,-0.10226167333497616,-0.09869449417041497,-0.14870439772076105
0.48000000000000037,hard,-0.11140907691967117,10.792391718826597,11.828442135738108,-1.3316628910566712,-2.2583949616320957,1.3275772776252155,0.8053784355965253,-6.600595361083741,9.739216649429268,2.5935461118641405,9.733254070774361,11.961938273538449,0.6728002773969868,-0.9282283444052635,0.6672451810389967,0.28527390220530685,47.01368968458403,60.240309028390335,50.947232691326846,0.0,-0.10363669885465901,-0.09914172220463915,-0.13706646785679236
0.5000000000000003,hard,0.2993499608311394,11.011387351364348,11.88279646482859,-1.320024579467941,-2.121955438897129,1.478627059016231,0.7657935670363509,-6.4844570146216025,10.40298663364492,2.337561134042699,9.5815126211519,11.809092797955435,0.6791644581207441,-0.9779640995946894,0.5895135409618891,0.2852535808078121,45.88009111529376,62.17039078691023,49.08617208684353,0.0,-0.10379972852705081,-0.09838771493334772,-0.12525344542275113
0.5200000000000004,hard,0.702630083477193,11.161107729612171,11.859565179445891,-1.3090282381334377,-1.9764026353080588,1.5977242077842435,0.7290523782078436,-6.320163174420599,10.999408318332598,2.0868148500134494,9.387350836588585,11.568553011875304,0.6802816937412184,-1.039431662929051,0.4836624522979268,0.2854609305515126,44.63083100252431,63.92986398034995,47.122754760311594,0.0,-0.10264393209227686,-0.09653904638702161,-0.11331942810391014
0.5400000000000004,hard,1.0844795666980263,11.234300413123,11.760545898913925,-1.294719071585343,-1.8198260602965624,1.6888145633913307,0.6922357590232631,-6.093472301596873,11.525433939951196,1.8443982105942218,9.130062367210527,11.311931158606708,0.6757475181688761,-1.1127852557851639,0.34727422004838204,0.2858530135217007,43.32221890359175,65.49189987747512,44.99901713588291,0.0,-0.1000888379947067,-0.09366834555603795,-0.10130531532575353
0.5600000000000004,hard,1.434446826494505,11.215240697890566,11.603589278612192,-1.279003351865441,-1.6522523445512256,1.7539707168004535,0.6604175327728046,-5.794627419633944,11.984327503897529,1.6142068609785398,8.821479358101534,11.04991291858725,0.6732969817050211,-1.185518452176463,0.21913056726846816,0.28637739287022684,42.12914512768917,66.82599956381686,43.05293580141382,0.0,-0.09603428969185178,-0.08980912451572731,-0.0892649590984287
0.5800000000000004,hard,1.7391908405696725,11.093527721007247,11.394905959004216,-1.264401438668732,-1.4765968958743052,1.7944605692467954,0.6386761295225225,-5.419341895910469,12.368866029425192,1.400739618269254,8.49723187502011,10.74410582790255,0.6848611724376695,-1.2526820316662721,0.10282995754397288,0.2869838343996967,41.067936292986,67.83626108924072,41.48075138604287,0.0,-0.09037707179844882,-0.08495303131449385,-0.07728488631875292
0.6000000000000004,hard,1.987006490266302,10.871083919829848,11.132629744085085,-1.2511194649147495,-1.2944560295652692,1.812506074014549,0.6279446969585127,-4.968938748318646,12.673907936202472,1.2098547584742907,8.162826388840688,10.401371967156082,0.7152141497379311,-1.3101643566340548,-0.010655695530866543,0.2876263546517904,40.036002903322974,68.45597956408481,40.315216760704885,0.0,-0.08302938548514464,-0.07906867025712962,-0.06547995692315879
0.6200000000000004,hard,2.1752925604535434,10.572135307566947,10.810138893009334,-1.2378649145963152,-1.1071375321659742,1.8105861949417976,0.6271818317102542,-4.447608574801306,12.900869885958194,1.044054499817231,7.819950029022457,10.028083546211331,0.7585173520269086,-1.3601295276843102,-0.13061486765428415,0.28825960827599234,38.91004774318683,68.67151552653593,39.47009239823845,0.0,-0.07393040738140685,-0.07210442821112968,-0.053983958880061717
0.6400000000000005,hard,2.3250815503765665,10.310040589174845,10.406924161295926,-1.2244935543888318,-0.9146832812146295,1.7915252798814443,0.6253949394796251,-3.850326859746783,13.053833301682635,0.8940435410329566,7.475324650835686,9.627772632542209,0.8212963109089388,-1.403370526195907,-0.2759488495179279,0.2888339463714067,37.63632470844318,68.47889052518407,38.82953665660082,0.0,-0.06306234624753171,-0.06397472787037105,-0.042933160975503384
0.6600000000000005,hard,1.7720045973904677,10.000417810697174,9.860665284854656,0.2989396054653424,-1.7289675202922585,3.4924490078946455,0.051171442998071415,-3.399123297262463,13.30864558554283,0.30991823326546175,7.243559381975893,9.1211267432913,-0.27867074566448274,-0.8941083671917559,0.5608497564666153,0.2893461046552812,34.576121211381555,21.8715590965534,69.6361433931241,34.6489582115586,-0.05172435808350003,-0.05489758838135123,-0.03289594655449146
0.6800000000000005,hard,1.0852542780259486,9.07078430990231,8.722664921322279,0.5567082967556917,-2.6718423910303173,6.738700180588009,-0.45544184237491936,-3.1990401465193536,13.401803631892667,-0.11694560129141562,6.889818501129832,8.3964071394515,-2.311603328061998,0.3834553102088055,2.3323593205200313,0.290188562153322,27.457219556715547,59.626984614034384,70.05061401915616,29.662227583317318,-0.04212032060247137,-0.047277907966827536,-0.024933776500691316
0.7000000000000005,hard,0.8449669218486778,7.397317606710954,6.773261009541497,0.7097915280269996,-2.6732993699195466,7.750873363797114,-0.5973965778434237,-2.688566020903813,13.03728121283843,-0.32934888549524,6.4008902812321,7.502438561308398,-2.634885064809387,0.5334664722138102,1.3787400368104197,0.2918779554742972,19.253372623117777,59.24176384864676,66.42592429088572,25.497402228549305,-0.03372651752752917,-0.04391826146692738,-0.017974979861437135
0.7200000000000005,hard,0.794523887917322,5.787101495227384,5.1900390488612524,1.0884300495482706,-1.4730264946847291,6.515308681120558,-0.5268059087375498,-1.6182077755419622,12.684771041227668,-0.3994372091514842,5.988771504827792,6.95013876487047,-1.6592481295358827,0.07517226897229147,-0.4685691012711299,0.29403533272512783,13.609049615591282,42.17074344706767,62.45238583311405,23.912579754783735,-0.025447038286315282,-0.043542313964572144,-0.011145038113360338
0.7400000000000005,hard,0.7695323513594302,4.726494183585993,4.192525501044432,1.3972219645048993,-0.3078731571510462,5.911055887616809,-0.505052068972333,-0.47340356958282426,12.676629996403282,-0.5525874696935645,5.629183245748072,6.587627877185679,-1.0155348321275564,-0.07640529250883542,-1.1010784674069336,0.29600397417078184,10.703264721461585,34.63231999896694,61.38407492705335,25.90513806490049,-0.016845728879493736,-0.044170640783463895,-0.004292898465276093
0.7600000000000006,hard,0.7985897933184677,2.1245888110534494,1.3242449533035456,1.5670535892067086,0.9708279512960066,6.459668777503534,-0.7896663391009069,1.2663391471527525,12.82259190971283,-1.0685130051141736,5.470219703723648,6.535705472821523,-0.9552588910076284,0.31493538295601975,-1.6201699045735434,0.29739903104004706,37.577798619744925,60.116954088890445,27.264964346469743,0.0,-0.009019517434271622,-0.04385200401587443,0.002808483592629379
0.7800000000000006,hard,0.8131402864718588,1.720760757694495,0.9622243210277821,1.7266236205052645,1.9841331766006878,7.03126821265431,-0.9135360358121117,2.5045632956104917,13.230788795262445,-1.3644275425011894,4.936119980420032,6.586779639270084,-0.7436274881294502,0.42326011343587316,-1.028747581589436,0.29817817324124674,40.670047582711334,62.41253740118478,30.7862969087058,0.0,-0.002000210243855202,-0.042948279321612534,0.010032752449106107
0.8000000000000006,hard,0.8245584826786003,1.4169698219215965,0.6763874927975335,1.7788020523659454,3.012659214258248,7.36875977520572,-0.9662334076470802,3.5067152607330025,13.685598389132235,-1.525152131961585,4.265351491487231,6.619607776794705,-0.5693584650651764,0.4344849742787551,-0.5227035236254648,0.29856719500548234,41.15623453742851,65.49744775297967,34.71076356846951,0.0,0.004347641446443495,-0.04251431146485364,0.016719391463728056
0.8200000000000006,hard,0.832842131779257,1.1281313203376304,0.4356664511538839,1.7872755945817773,4.145818592592365,7.477297590296695,-0.968343921802944,4.474378774352263,14.066917116648366,-1.585315559425659,3.55010709045155,6.596968416500135,-0.3003194645391344,0.3665199659468582,-0.2692912197505411,0.29875407723591213,39.29699911236073,67.80404625648855,37.932959353895555,0.0,0.010203761842883357,-0.042600352209563465,0.0225840740650658
0.8400000000000006,hard,0.8389820395643226,0.842869559910508,0.23150750760794514,1.7743543811906837,5.299934360771839,7.486505073626221,-0.9474440829423711,5.412774799719884,14.355149586556877,-1.5922591028868345,2.7772267692708623,6.483034341072563,-0.020515870454081132,0.2730388751692115,-0.1751169504735583,0.29883452640256464,36.708217565006294,69.3167986841401,40.348118988546304,0.0,0.015752572200510614,-0.043081289094651455,0.027563526127389416
0.8600000000000007,hard,0.8442637242496279,0.5673841213114932,0.06213464417351777,1.7437938722455877,6.424186491828137,7.495350134501235,-0.9228981385722241,6.313274155742107,14.58908579495159,-1.57730468609541,1.9209520133302238,6.307845678822561,0.207040713623096,0.19156361194430588,-0.11206733499582222,0.2988470162409024,34.395458855648876,70.44757627913175,42.44401383198576,0.0,0.021130610173246835,-0.04385747307346278,0.03169322098807346
0.8800000000000007,hard,0.8492844573359472,0.033471512046551535,-0.08199768211960248,1.6871830806294512,7.510547921275667,7.5425374356402575,-0.9070036725442925,7.181681569089584,14.788714227628423,-1.5575255557644474,0.9766109236826527,6.105216360755414,0.3779225303257237,0.1391966250075435,-0.03318349537300624,0.29881672193076014,32.63977906094285,71.29654612983929,44.50945458567787,0.0,0.02639988044209546,-0.04482213911678882,0.03503329114199233
0.9000000000000007,hard,0.855452135563851,-0.2552508198386325,-0.3485788528743241,1.6211451800222902,8.568497143296986,7.628458492715741,-0.8913891245626672,8.046798254514368,14.926915471945847,-1.5278497734380856,-0.0407200848538132,5.884839818154795,0.5098127300592801,0.11254073863807358,0.0379414954581495,0.29877471339248196,31.324270804650162,71.55491638277617,46.53040835814391,0.0,0.03162407564402152,-0.045856760024142774,0.03765685353450369
0.9200000000000007,hard,0.8608217654841589,-0.516655391357713,-0.5617631516225781,1.5247299148302778,9.592092884033436,7.744082933105493,-0.8881788215466335,8.892833767732617,15.015680786670398,-1.4988345505010863,-1.1317687123313023,5.650300235673585,0.6091797560152602,0.1134350577512173,0.09355090247114597,0.2987493835266511,30.348296807143456,71.37356496108146,48.5432201372996,0.0,0.03678197894378636,-0.04688627423450178,0.03961882571362485
0.9400000000000007,hard,0.8659168740318328,-0.7665189841815119,-0.6236114454604984,1.404141652239335,10.582574411887324,7.886039288925626,-0.8895804510110654,9.721720579192231,15.059971383264077,-1.4610691303631256,-2.286182895670389,5.405596435658803,0.6813570037496924,0.12941881131925617,0.1511123569182788,0.2987632628529808,29.714139066956776,70.83334971871828,50.547391626203186,0.0,0.04184277818346947,-0.04784839762600008,0.04095580454376932
0.9600000000000007,hard,0.8715951343792284,-0.999604118460224,-0.6598364491395867,1.2982271013535367,11.548876068124786,7.989299963351571,-0.8659731592732567,10.532848862975671,15.054441299046958,-1.3895787328110183,-3.5095791391153965,5.158372414381296,0.7193242588280673,0.1804627622769977,0.22327352919839466,0.2988404187797073,29.724624895586913,69.88344800045184,52.64264957385764,0.0,0.04681353677347089,-0.04871264564627149,0.04171068633202231
0.9800000000000008,hard,0.8774618266760181,-1.2285166448311076,-0.6688900973572645,1.209771202242565,12.470232641126596,8.078259877060612,-0.8265638539879089,11.331138519320632,14.994690783404756,-1.2982537300127672,-4.794750661003339,4.904772371505972,0.7387295058528756,0.22505303597588916,0.29503078187542026,0.29900903768746884,29.92326396008706,68.5779460742912,54.72861803580557,0.0,0.05176045611476782,-0.04948164091076576,0.041977429697170096
1.0000000000000007,hard,0.8830891800369369,-1.44555289494608,-0.6563712434934588,1.0302584028593191,13.340023047242711,8.19029004592322,-0.8371592228212984,12.099732442054389,14.903196337869305,-1.2297495271457088,-6.105205956677596,4.643468714747855,0.7100575471157641,0.2590127594852902,0.31167621697316794,0.29929427516253715,30.142048717358097,67.18546558411687,56.119629037249894,0.0,0.05641270711315893,-0.050161736048254364,0.04172677898606823
1.0200000000000007,hard,0.8694051360140622,0.056615295245700525,-4.679165477852504,0.44668674062792557,12.309735270702324,0.6942445813551839,-1.2578418080514795,15.773260875670255,1.8086074375324017,-0.15820003598639565,-3.9080135652520873,-4.705099522723266,1.0730909943193168,0.29868995149132804,-5.559344165236167,0.29773503043980926,16.884415747835007,24.576727326847674,21.191465627404536,0.0,0.06112208111756115,-0.05941973933714754,0.03969841243660557
1.0400000000000007,hard,0.6623667667630451,-0.6491522865196802,-4.065707834963364,-0.04296920530709414,11.36925800679361,0.7559962621646239,-1.199150495584235,15.324360611202467,2.2706683465221857,0.38281131076328223,-5.5939027544942626,-3.9491870369007636,0.5813219292549028,0.3526362363473093,-5.1011394096144125,0.2939146678926834,15.93114596511395,26.081445682907187,27.488929003152528,0.0,0.06554708319212824,-0.0741809759533467,0.034572133016541086
1.0600000000000007,hard,0.7074525112378001,-0.8946229247085367,-3.4999127376525205,-0.4993664365821323,11.915727442614347,1.7498455650592923,-1.1786106771593436,15.836696294471253,5.118717882634778,0.820805969717041,-7.866282815503381,-2.964025772330233,-0.31915552848493867,-0.08841281009401511,-2.6195343685751977,0.28817750067972936,19.432702999529837,49.3817715611449,39.36987883226314,0.0,0.06926976429874225,-0.08974542192804057,0.026434868469211906
1.0800000000000007,hard,0.7925867747759369,-1.0985270293298495,-2.9768612666330894,-1.0705513546263579,13.970698227017019,3.738595652566314,-1.274184692757379,17.44599757934238,8.159160265393986,1.1548528339742732,-10.987667074983614,-1.4425384971250157,-0.6287535230087525,0.10041812092130847,0.23653490322545728,0.28150864390116853,28.138037714827796,62.92649634837249,59.14395289125155,0.0,0.07314855488822877,-0.1003269922436532,0.016385856253723758
1.1000000000000008,hard,0.8584683430438749,-1.5364435871231774,-2.6026044987715355,-2.4993737715258217,16.76976860241696,6.415485441737843,-1.4510698440517766,19.29091558661101,8.998963492607917,1.4967942952398348,-12.997698328536643,0.6688610866663094,0.22266329318128697,1.0510495095942651,1.770058057805012,0.2749655173917556,41.106133283410436,58.64342288113497,72.59821755572074,0.0,0.07587833864311484,-0.10402267446518067,0.004449183918081087
1.1200000000000008,hard,0.9561287803567304,-1.9190106739598853,-2.2350620901978226,-3.8636000623681546,18.662485324110268,8.533731132223862,-1.3969862687490866,19.84006776346733,9.662303085831388,2.0767450015430833,-14.401435550130987,1.3124098719262767,0.44702373231593445,1.359181010523344,2.316665029339885,0.2691217065796101,50.66910267652564,58.131385756242025,72.6294580443844,0.0,0.07668869620357247,-0.10492495583397964,-0.008861406519445359
1.1400000000000008,hard,1.0084532323413415,-2.183019696123301,-1.8173659661153763,-4.551323575255898,19.429723330730358,9.410533367118942,-1.305876637966562,19.938057362204162,10.66269401923138,2.6275138500905864,-15.5369586948694,1.663433321652982,0.38754166415983954,1.2331304529475142,2.523798218687984,0.2641934446855642,52.059906337217384,61.44159703891186,71.63106223035771,0.0,0.07568187444660585,-0.10590040699663508,-0.02237293287430847
1.1600000000000008,hard,1.0121591764055569,-2.417041055615046,-1.4120903486350604,-4.7878503444002325,19.471093752429127,9.741466890457778,-1.2934237697303985,19.968915552026196,11.729793588016845,3.037389047711094,-16.03137412810732,2.238019410994478,0.4824406109179438,0.9677041148695062,2.515740693877201,0.26025384792609463,51.117874602778436,65.17298449457131,68.83578116530616,0.0,0.07274527189340892,-0.1071593700311838,-0.035611155564471406
1.1800000000000008,hard,1.0249413704657002,-2.623498488082036,-1.0333089344951576,-4.761472474969137,18.999663615177983,9.81454811908526,-1.3422562005816399,19.86301938882732,12.72010380551015,3.2977792205114245,-15.575604956703447,2.782860908345964,0.6366631332960357,0.6266439378630733,2.2608071083452157,0.25729263723354184,49.18081640949075,68.63578905651711,63.509522879144995,0.0,0.06787397498550646,-0.10876130249764546,-0.048336596838240715
1.2000000000000008,hard,1.0535324115116709,-2.7888689443354195,-0.6778327614599604,-4.510797668311483,18.200440363663574,9.68886307235681,-1.3706573707772103,19.51922325064806,13.726205824976507,3.3833760650017206,-14.639864649451278,3.240604660588521,0.7397833723915387,0.18682710108985529,1.8725546102784725,0.2552060405123305,46.277047873476064,72.71812373169077,56.85415188126904,0.0,0.06162240979202853,-0.11113502059762728,-0.06016712618032133
1.2200000000000009,hard,1.0676120574792938,-2.9087442391628144,-0.042787270555715524,-4.153925292963259,17.3541968467177,9.529286355110697,-1.3621690667540867,19.07692710588308,14.699263218044399,3.328044829437578,-13.77201867872597,3.741357463313995,0.7239070287546467,-0.19622920003839767,1.5818869785054266,0.25384768696136284,43.33672805834612,76.62450740703302,52.029354133690674,0.0,0.054915734349684754,-0.11453483655714433,-0.07061686348507844
1.2400000000000009,hard,1.0588833267461186,-2.9872199569013755,0.29569656661501886,-3.806412616581478,16.615610955629375,9.433138437682159,-1.3327461650571883,18.63658057829633,15.532322014609363,3.229061426969796,-13.041517321386735,4.5465947073679915,0.6981499204911252,-0.47643123286751565,1.3490922290571645,0.25310340663247916,40.88011760674278,79.38164590802062,48.375750880034445,0.0,0.048540190113496605,-0.1187555413291524,-0.07944604520347928
1.260000000000001,hard,1.045061166532267,-3.0451544774434813,0.6068195344769007,-3.500854546231743,15.980998051111522,9.393075673484809,-1.3175370880491066,18.19875297203326,16.207558474401687,3.1238996575481464,-12.427824437187137,5.0921504100128665,0.6506465475054386,-0.6511916461029057,1.1375447061643746,0.25288164922133805,38.89615160521345,80.8819047910784,45.974618379917146,0.0,0.04297605765994921,-0.12352957742820223,-0.08660419118087857
1.280000000000001,hard,1.02752822359551,-3.076769362939535,0.8955877912627184,-3.254667458901916,15.438806351961844,9.42194472350301,-1.327948243726496,17.767694946869867,16.749187547595955,3.0483360771403527,-11.940875771600718,5.659627169041414,0.580063176174568,-0.7191453032859362,0.9490988822033262,0.2531015634259342,37.28626445890219,81.25417974648053,44.61175530177567,0.0,0.03845660549728468,-0.128580423051058,-0.09219778507965078
1.300000000000001,hard,1.0229605275322378,-3.086126329479759,1.1618632760798349,-3.0862836257780497,14.895145658106198,9.670602205418612,-1.3547513206488948,17.34530841851693,17.17773487694595,3.002082009804308,-11.48339663802962,6.201653553523919,0.508921674784296,-0.7276692420943927,0.7797951967701238,0.25368792185622974,35.86601130840796,81.04948913766381,43.58056216064498,0.0,0.0350514618175433,-0.1335834399325077,-0.09652516074390144
1.320000000000001,hard,1.021927110646685,-3.0746346428131144,1.397735418372589,-3.041137621174324,14.518805267239376,9.766752966756103,-1.3907817343061495,16.884418493491033,17.50876052337258,2.978232301722996,-11.049451753986762,6.706789033124034,0.4768175942125353,-0.712741187401771,0.6690172024055893,0.2545766035714887,35.17688798338564,80.9051691133701,42.79887487849001,0.0,0.032679059792058186,-0.13828362066843136,-0.10002754752025345
1.340000000000001,hard,1.021572153592959,-3.0395506145612767,1.6077124761878405,-3.0286250928266316,14.223142064423774,9.908237532643945,-1.3912358317621918,16.40379281526787,17.72325788628877,2.982725955350936,-10.65133967069773,7.183805725211169,0.46395572643156296,-0.6865863426867777,0.5962816512936004,0.25572582907954733,34.96087814600149,80.53091953400954,42.3530657867509,0.0,0.03138687372830549,-0.14253371747186658,-0.10301536814626665
1.360000000000001,hard,1.0213604017311195,-2.9855300783614576,1.793369539997233,-3.031290068430995,13.979667530197228,10.066251537623945,-1.3686218180159129,15.918025030154169,17.812795896876434,3.0047922456234666,-10.297968952752246,7.644078326820549,0.45996217704951464,-0.6403128221196488,0.5358368439340104,0.25710709837652956,35.005012972978015,79.6810670700317,42.30214796043141,0.0,0.031207804397454034,-0.1462305620079309,-0.10564397923997226
1.380000000000001,hard,1.0208004147513987,-2.9142698939621443,1.9560255489287908,-3.0485600947324505,13.752114151531416,10.21713232659417,-1.3434756226037332,15.438264895688954,17.775963753406305,3.035793675096662,-9.988817930677406,8.092884911005257,0.45498248414645803,-0.5700367285856316,0.47542374497328244,0.2586965903473801,35.23385965012618,78.25547469922483,42.63506796530922,0.0,0.03206580473988231,-0.14929760171161677,-0.1080040823135333
1.400000000000001,hard,1.0191476927626444,-2.836328206867406,2.096314345679926,-3.131077317725374,13.515094023635141,10.340052840525635,-1.338284982134561,14.904463458256274,17.72418299739127,3.079624800881538,-9.728233675543237,8.539984790495982,0.4476548248226522,-0.42256733213542774,0.33795750420682974,0.260462666584872,35.459607982752786,75.22423364509429,43.37928142017022,0.0,0.03372309219319607,-0.15170618770021252,-0.11020317182591043
1.420000000000001,hard,1.0167370778414315,-2.7289381939093937,2.215046632982453,-3.281709066570549,13.28724002242906,10.463875897382131,-1.3331005580824589,14.40380128503207,17.520602794932,3.121441032581939,-9.486396803633387,8.964221456420923,0.40769571582537584,-0.30974290012781514,0.3046398013591312,0.2623627221272945,35.94952625192116,73.20844590599647,44.32117755937582,0.0,0.035849475646213984,-0.15340941842633424,-0.11243731010060476
1.440000000000001,hard,1.0142907602143778,-2.6122759541376963,2.3103606262863767,-3.4768536982894966,13.047866861036582,10.585567552430478,-1.3257130580482768,13.939588733057402,17.21419959535605,3.1659690596057684,-9.277262528498571,9.366639318348774,0.3664534579412704,-0.16846280554799178,0.27272578834543865,0.26438112507863604,36.7043280955079,70.80240824966732,45.46139642438118,0.0,0.03820896817833796,-0.15425265176140385,-0.11483804801142311
1.460000000000001,hard,1.0114277614977658,-2.48449135883629,2.3841118961088528,-3.7163678375404166,12.786669393353723,10.684272320893731,-1.3139255149503033,13.50104635465183,16.82520133184837,3.2078937045542992,-9.098742903028288,9.740012254969166,0.325032912927557,-0.00813027168092973,0.23477823878229132,0.2665049385107356,37.56312256924832,68.02604440721545,46.74658870747776,0.0,0.04052721584133948,-0.15413798634091433,-0.11755885275307383
1.480000000000001,hard,1.0079357544266991,-2.345773588467023,2.437886437510123,-4.0042621784762895,12.51786622394685,10.735693733046059,-1.2948202336057528,13.083692184340876,16.35639423968962,3.2436904660341277,-8.955139453153768,10.08232174664004,0.29110692174887093,0.16410765534921723,0.17672940910902582,0.2687181111949928,38.28173372088113,64.92205588884565,48.17708382787865,0.0,0.042501000960501904,-0.15298712542744078,-0.12076299484325678
1.500000000000001,hard,1.0036035148023181,-2.1959783907817787,2.47166655803015,-4.3197700362940665,12.265561863194598,10.745079339023636,-1.2293970311401683,12.686851754130377,15.82270423861993,3.295282947745906,-8.856448639885368,10.397959562070753,0.2674066323534493,0.3567888665230315,0.10695503784662604,0.27099711284037736,38.8234989250138,61.60806277546474,49.82008395741872,0.0,0.0438861396586417,-0.15070841461553866,-0.12461635711911265
1.5200000000000011,hard,0.9983199208424467,-2.0356029994091944,2.488725166629793,-4.672908553989106,12.04931558143295,10.7321215345817,-1.1080383723793283,12.310979818799886,15.238537172553537,3.3530775104298702,-8.819443738733705,10.693902458792097,0.24793083581119799,0.5597123634744126,0.04422415098665405,0.2733149169362709,39.290564484349574,58.13065755057926,51.772350103992906,0.0,0.044505074733953216,-0.1471725854467422,-0.12930756611313157
1.5400000000000011,hard,0.9921784271046518,-1.865127122378941,2.488859891481976,-5.076916290799779,11.874223193452378,10.715216419751771,-0.9415235918241882,11.960656185218548,14.612307988646586,3.4037918945718495,-8.85381974234403,10.96723738526662,0.2360695621037331,0.7835366723041154,-0.005792389901267179,0.27564720002942683,39.79610698233419,54.504691285788205,54.0243673307783,0.0,0.04408170564332697,-0.14220758138408646,-0.13503073734357438
1.5600000000000012,hard,0.9854383086522202,-1.6863373337225909,2.4723916021238512,-5.523318242947287,11.73201506566414,10.705909136669433,-0.7266799767131942,11.63275932032785,13.952343528963446,3.435953903463388,-8.954316234192305,11.195498452868517,0.23837356761620704,1.0241499477423823,-0.05088556950225262,0.2779743341523975,40.415933584517845,50.76535163865564,56.367707815533755,0.0,0.0423059235921714,-0.1356186108046913,-0.14198140339662507
1.5800000000000012,hard,0.9798004711892986,-1.5048279643111733,2.436931883066449,-5.9894532803173295,11.62275822395556,10.639060073322113,-0.46904244761187375,11.296026549959599,13.280088185843931,3.432291441200512,-9.072004447720568,11.32430520654545,0.26854837410960386,1.2622130063736887,-0.08683061448607131,0.28027848515338827,41.50876545144739,47.133785303112084,58.32177742010356,0.0,0.038852819980925705,-0.12725540289822293,-0.15032372902564098
1.6000000000000012,hard,0.9756011001860609,-1.31936298682756,2.385014855097295,-6.432080574721899,11.49726509950327,10.484536064950651,-0.18591323829941042,10.912518820224111,12.616418596978464,3.3951233941161694,-9.096686005848627,11.376433196265962,0.3387024737631619,1.4620650391898995,-0.1677275241619699,0.2825434410635701,42.384688598212065,43.84536817156973,59.800716382628224,0.0,0.033404802739431354,-0.1171273481460489,-0.1600857351055153
1.6200000000000012,hard,0.9724168064827036,-1.133229804941244,2.3184402853757238,-6.775933413245326,11.19689999404614,10.355759137090864,0.08233902174948038,10.462562723832562,11.989346899380028,3.3434374093267523,-8.770838833482575,11.350661271718971,0.49066565812179774,1.5700253523375634,-0.3423769889512552,0.2847332528008271,42.54969536788465,41.185741461340406,60.056868106970796,0.0,0.025710205730023566,-0.10532516215551779,-0.17109110953204312
1.6400000000000012,hard,0.9715889278356546,-0.9495288373433972,2.236988751965762,-6.93915408446448,10.709007508270933,10.066621111117536,0.3003299792277203,9.901937586176274,11.439041845763818,3.2847135005410895,-8.123675551600044,11.140340267972448,0.6895965931884517,1.560045456743277,-0.6403942875201798,0.28677204207201845,41.83269349358666,39.60690815441354,58.348203412636046,0.0,0.015616894874178656,-0.09212508760542927,-0.18286816844034912
1.6600000000000013,hard,0.9707852541533443,-0.7545667587068632,2.1504373458304427,-6.907053667975912,10.076525604664795,9.656257135438846,0.4993895177166262,9.265230175806108,10.985550487889297,3.2486038418581202,-7.383543687063671,10.801844323885199,0.8527793190177386,1.4847364522562763,-0.9510793879763159,0.2885427292264117,40.49839561874674,39.151184710601704,55.79382542390827,0.0,0.0033036711376365786,-0.07782823980044193,-0.19475151505296115
1.6800000000000013,hard,-0.5842535475694374,-2.0220589924293266,4.229996362032006,-6.177379088917518,9.474360179826716,9.04191041103961,1.0767876875506401,8.878792290038028,10.376042035454773,3.6979089506950187,-6.807205490581692,10.573834618271551,-0.7544450704192683,1.043469596130197,0.18458992624126183,0.2899932548537119,29.202248324360166,35.58571232167447,36.230426193210796,55.20641493833054,-0.009891962819459144,-0.06282263232332559,-0.20567545709665952
1.7000000000000013,hard,-0.7421264413837435,-4.201696510681747,9.712702686121698,-4.911326928232244,8.392265294746847,7.46328188270458,1.5950103226134855,8.403354998569295,9.340006231153248,4.228637480624896,-6.658968295889302,10.349932787215415,-4.1843668692654665,-0.09284019092757632,3.1351288768017582,0.2917216385817602,89.40137028121208,24.809893516555803,30.491509870724833,55.62071874227119,-0.020737951004312003,-0.05047601301337146,-0.21390201984695156
1.7200000000000013,hard,-0.9572560759068887,-4.082323053737421,10.071403634790524,-3.7948797419550653,6.367393020220873,5.172120808544047,1.4753117220255065,7.712204112671403,8.152236612055297,4.074426912245797,-6.012405508808815,9.749809713146622,-4.005072406341327,-0.03110457519397276,1.20380044955953,0.2945234879709486,77.93844596563194,14.564722575104511,25.04722464883795,50.97312195384711,-0.0303915677530007,-0.044614514934822956,-0.2207733011958263
1.7400000000000013,hard,-1.5930780936772382,-2.4002655273042794,7.806842732352365,-3.0071699351454093,4.753319573172055,3.7938882004428507,1.140934950133049,7.149830836869774,7.432725651829484,3.687467101456187,-4.68910658806025,9.309365522763704,-2.3998885339491656,0.29556047206608493,-1.2281862090604267,0.29771241090216694,52.661478557693755,9.74199775026128,22.59079178202334,46.05314875716484,-0.04087804499152614,-0.042306024376750004,-0.22748307835937703
1.7600000000000013,hard,-2.2014548558865834,-0.9448122635237323,7.625914916711023,-1.9837907196055884,2.4077477576785196,1.3354547185502676,1.1480904971194466,6.831940012083903,7.123109566137286,3.58080960205143,-2.916206497175573,9.279979285042693,-1.9591655671847708,0.03742675308429742,-2.260917481238564,0.3002836053429453,49.46555223382454,22.447385860707342,43.373150895568614,0.0,-0.051739304381890665,-0.040093173655041385,-0.23457426041086107
1.7800000000000014,hard,-2.539565704851278,0.015103405841267181,7.988007886512673,-1.8849826110288124,1.9550818316584913,0.9819219806228667,1.3667327527635944,6.481493792178737,7.030653405382394,3.582250030985558,-1.7923947673181315,9.754114595469506,-1.6475999679560123,0.0731729674391612,-1.7672769997640152,0.3019832731202181,51.019769447722354,24.2557919684441,47.127850978023076,0.0,-0.06234833690875736,-0.03829605122387661,-0.24188527414300895
1.8000000000000014,hard,-2.718781534077393,0.975094520100821,8.27578923731142,-1.8352129505423584,1.6342615631500124,0.7005628414460188,1.6137811516805574,6.002445606892494,7.198705305349493,3.5786583149935565,-0.8775945610363496,10.356839685119795,-1.3479080892525057,0.04033711957084818,-0.9464766977669551,0.30302423889108815,50.60854071505146,32.13305503881451,52.07211870161389,0.0,-0.07269388929928068,-0.037753822122568684,-0.24884591865218286
1.8200000000000014,hard,-2.72835009542971,2.225158536513717,8.36213090624605,-1.775827196214259,1.330210338005744,0.4633102109877816,1.7328871304860631,5.2949097473824285,7.596181655384798,3.5692987733008334,0.18774452900936867,10.751934239734549,-0.9516438479844957,-0.0554550128611473,-0.46617135880979016,0.3037029262270084,48.39626822042095,39.14761550154452,54.170645919140185,0.0,-0.0826136720257409,-0.03786450075159235,-0.25502307618871867
1.8400000000000014,hard,-2.645158065939877,3.5103632205202713,8.352694590249945,-1.7271975282277587,1.0105576718688247,0.2522415750810645,1.7806973437231686,4.572677351190401,7.707812712519215,3.54976456399061,1.2380491996119312,10.957492622993797,-0.5187421699050629,-0.11894900202225515,-0.3686458297814995,0.30419157699593385,45.43746495144569,43.05046387350879,54.60630830887307,0.0,-0.0919793633819512,-0.038230739416024735,-0.2601628395166943
1.8600000000000014,hard,-2.569954670230497,4.7069518528683085,8.325343626867042,-1.6866013360493028,0.7079935101994667,0.0772645285995257,1.7676516147088481,3.739315406895233,7.637408837107494,3.494994503878181,2.186109523494683,11.110350517415313,-0.1946579565542438,-0.13222298804448432,-0.336863306466555,0.3045319915270881,42.76042586856826,45.839364509182474,55.06246391371937,0.0,-0.10094041595613623,-0.038931449790619695,-0.2642899915081127
1.8800000000000014,hard,-2.4873025875179384,5.847575796548144,8.33742241914514,-1.6482232791683573,0.34310388209785847,-0.06939851474389633,1.7449894400882073,2.790883965413113,7.5399830186876,3.442357339500761,3.0862940205735185,11.253675095136504,0.05417497530073421,-0.14473822279232834,-0.2571914842210954,0.3047413818281373,40.70596314869578,48.76740450288757,55.57681253043184,0.0,-0.10965549569867873,-0.03993334815424093,-0.2675186004152311
1.9000000000000015,hard,-2.3848289424691504,6.960853217929193,8.402384398570694,-1.6034743135989142,-0.1401862580888485,-0.32737100666691843,1.7208924701845325,1.7619195454903602,7.4446987568827225,3.3963009274248153,3.985772051949407,11.347334018547166,0.21565682983859802,-0.16090729198309586,-0.14698048044676254,0.3048535669032703,39.21895005426998,51.749242370331345,55.51591371463003,0.0,-0.11814341807515964,-0.0410880561508309,-0.26993951961641643
1.9200000000000015,hard,-2.24993970475273,8.04765016090484,8.50069951168134,-1.5684135148540936,-0.42024595156891786,-0.5499250835549214,1.6935672897815757,0.6627033457432018,7.341752091477614,3.3578052802729195,4.878493815312593,11.378935464204943,0.35331741078745765,-0.20726278648607088,-0.07133965672929268,0.30490863780604655,38.06441631607837,54.670598180573215,54.890962446172274,0.0,-0.12640157090555765,-0.04226747492190877,-0.2716139024276844
1.9400000000000015,hard,-2.0766977332999517,9.105224743123475,8.623752441760217,-1.5403669657191834,-0.6858392111036178,-0.6142165773402016,1.6543074898279595,-0.5018297725167595,7.229845968284506,3.322728778381974,5.748261633885135,11.363485243464279,0.4568796336179787,-0.2604106739033462,-0.005090980431216548,0.30493699811505426,37.17035702614751,57.52567072870943,53.915701658083655,0.0,-0.1343776308784548,-0.04341462191793209,-0.27255546884543963
1.9600000000000015,hard,-1.9319606941150613,10.12945483664328,8.773062019979916,-1.5318767151336012,-0.9309366184950991,-0.6505656119232791,1.556928269991954,-1.7328608801482108,7.125125334805345,3.241973178642656,6.60642992796476,11.301165526466779,0.5254700280838199,-0.340465250265532,0.050260831179588204,0.3049643836980795,36.663698995669876,60.44014831292694,52.46431438335122,0.0,-0.1421144742977207,-0.04446126412289891,-0.2727932829739226
1.9800000000000015,hard,-1.757778277382889,11.134441334961583,8.880240840297873,-1.4928960890527012,-1.1736565760608402,-0.6599193408192588,1.4745764272662467,-3.021451610704671,7.014386340723739,3.1869026945235266,7.448187137106685,11.20688602166763,0.5606206965509918,-0.39814901773592687,0.1398151292344834,0.3050165067050971,36.62348495681157,63.24551688275043,50.87192120660038,0.0,-0.14963384814649705,-0.045358326785051466,-0.2724264569992086
2.0000000000000013,hard,-1.4759495676676309,12.12082913697621,8.95869986880297,-1.4689029061279693,-1.4017296374852783,-0.6481393508542123,1.4444590099602357,-4.341970545085127,6.883576054398584,3.2040091311871057,8.254576148310766,11.09314569633543,0.5820422379447999,-0.4533932286956881,0.2004384117244749,0.30512524198369007,36.583216576186906,65.73242771703853,49.29685467441357,0.0,-0.15651868784201559,-0.046160918750627604,-0.2714386987532113
2.021999999999999,hard,-0.9654061630139935,12.070376355460635,1.1074635184434527,-1.1454082389512819,0.13375120366385973,-4.57511457634595,0.5286364126468264,-3.088671861221618,-3.777300651444584,2.7971826819704,11.283660966245183,-0.9948235717816285,0.3990217243948225,-0.4446523133996931,-6.082236996946193,0.30288747013709916,17.73630843140496,22.263949921656035,15.176903320818253,0.0,-0.16666420346394284,-0.0559624635812174,-0.268325448034473
2.0419999999999967,hard,-0.44096606142747863,11.9214335975051,1.5759959053442412,-0.8658531183485716,-0.5774594653861727,-3.9611658248020323,0.027988490082782702,-5.536850945102206,-2.7922869352716564,2.6608618236718167,11.258788046945021,-0.3055573386165733,-0.18454023656173202,-0.43403457799753925,-5.092044626106286,0.2982803513444549,18.91024480469166,34.21855270011127,16.702195403813032,0.0,-0.17733349743541643,-0.06867443120060407,-0.2626899864852776
2.0619999999999945,hard,0.49225581623740844,13.50040173820367,3.1736968647129284,-0.8216498942087509,-0.887637354099791,-3.4041271856087043,-0.25320146137348254,-8.963277007540812,-0.3262665775242475,2.8137406499796787,12.37532327945881,1.3232104128075903,-0.6903216692558258,-0.741251354073446,-2.033827561659673,0.29177824617853476,26.267188377470895,64.60379427797801,25.282426793978544,0.0,-0.18657499594478905,-0.08009736541843422,-0.2538098027172429
2.0819999999999923,hard,1.7962357335784467,16.56640757466405,5.889310965662489,-1.1061433068790403,-1.1766538051446407,-2.965071498729264,-0.5783339657920288,-10.637172564204878,2.8289340460352506,3.0336363830914435,13.855196264034408,3.710411852281915,-0.2699941130562432,-1.0645852846009012,1.003568537976973,0.2845886595782388,40.353195985442426,83.81630156096391,36.629320171950795,0.0,-0.19318407011533922,-0.08574503438505868,-0.2418738212380439
2.10199999999999,hard,2.930319963752728,18.816763799232913,8.564415656111825,-1.4162289873994396,-1.5701523911020026,-2.6028049802992657,-1.0669404466552668,-11.73766979987706,3.6244347901705254,3.052053493770438,14.750314510685126,5.335962913332635,-0.08318545581338128,-1.1664254318924785,2.132819998689516,0.27779978829435975,55.523727088376916,82.30186510083996,40.701399371612986,0.0,-0.197786666603324,-0.08713239507227823,-0.22888103149352731
2.121999999999988,hard,3.5966233082494004,19.93905835918823,9.673395667424222,-1.5034248507017398,-1.8983528682163069,-2.18592015028291,-1.483981220038015,-13.281872729824563,3.9889391635867835,2.996696692902044,15.170959545906614,6.358114423093319,-0.11192880830558326,-1.139814210128027,2.3408416858136323,0.2718421127857164,57.78112276512253,82.00248036664134,42.25317174117256,0.0,-0.20062056611747942,-0.08825348926909211,-0.2163213649453949
2.1419999999999857,hard,4.08111810388762,20.75919032655387,10.069613836298982,-1.483384707295677,-2.175962699250495,-1.7558327334429764,-1.939462364698138,-14.61211003821113,4.5278628005130575,2.9021726317686936,15.526044326988771,7.309723902652074,-0.042736815291335675,-1.0544805858912893,2.3551413995523354,0.2668054851393664,56.128028193113636,82.27685491743358,43.95603099422464,0.0,-0.20165667606372698,-0.0896784074614124,-0.20413916476762664
2.1619999999999835,hard,4.491833339138077,21.11824281240102,10.480641609984994,-1.4821092855127829,-2.4226728606568777,-1.3569455816455398,-2.395360840771044,-15.574838074897828,4.991667024014518,2.8346903814690148,15.759242081204423,8.282762386102606,0.035179469626715684,-0.9133855754039334,2.3395525604836673,0.26269673489146594,56.14100597482257,79.92403684898547,46.26555810884879,0.0,-0.20073594101439454,-0.0911120107235786,-0.19196613673705132
2.1819999999999813,hard,4.815591691427409,21.12188983798334,10.801429268357298,-1.4851594063274793,-2.618820543233026,-0.9772811713492182,-2.7901502647425707,-15.939193134698975,5.464405266303857,2.7949882768479513,15.873487877696705,9.216587519117086,0.09981766395664145,-0.7750076691029094,2.3173731030496203,0.25951285308077154,56.13721936540543,77.11896567459881,48.763149754172154,0.0,-0.19780744208769427,-0.09277485171987424,-0.17972202065690898
2.201999999999979,hard,4.968502775162547,20.780199111134582,10.940176571226978,-1.493765333725906,-2.7837490382907024,-0.6196323813707656,-3.091075879829128,-15.634914620107875,5.927654204558722,2.7643095080321363,15.80925935941336,10.140684881932152,0.292585322985221,-0.5629318394350344,2.1113853340397917,0.25723418856855285,55.05236663546376,72.44695635213357,51.765031176935615,0.0,-0.1930421774879901,-0.0949341334255839,-0.1675014310227453
2.221999999999977,hard,4.900947249827096,20.141921198383233,10.904938911204201,-1.4941832222231481,-2.9106792367765593,0.002164462178066734,-3.2558248815687296,-14.960291388586581,6.334261687213322,2.7318712066542137,15.569220443481612,11.062287853781015,0.48612049332717167,-0.2589119884968972,1.7901733586774298,0.25577560483197037,52.84232284114462,66.70387332658355,55.302609645446275,0.0,-0.18697242523107818,-0.0979997392756595,-0.15571220562585358
2.2419999999999747,hard,4.654861236585805,19.34617453868362,10.773065341558556,-1.494186527428355,-2.996373462521076,0.32808103383533105,-3.280488618859943,-14.105232695200893,6.9093928549447226,2.6724246832944862,15.199069385317923,11.957771884863533,0.6374862318847223,0.08230387626547594,1.4460316375728726,0.2550085335899259,50.01381353715274,60.9677419965011,58.99363777599734,0.0,-0.18043003182871337,-0.10219819628486203,-0.1448208272060693
2.2619999999999725,hard,4.363968397733415,18.570316231684057,10.648746811860056,-1.489595494234883,-3.0483813977169207,0.636123925470955,-3.238367664298327,-13.40535552951365,7.318794601190331,2.6164379486750686,14.81812117127286,12.74021654592768,0.6675843549466163,0.3472532176252453,1.2081457843630814,0.2548033600606492,47.35483570813339,57.526926006777096,61.899016253507256,0.0,-0.17411953949472597,-0.1074191466683225,-0.13515749341556016
2.2819999999999703,hard,4.1446818445249916,17.911649664244976,10.625901780471185,-1.481283052727806,-3.0735152449957344,0.9234968996502997,-3.1958988711973815,-12.911019998615114,7.826287929668958,2.5682486900910457,14.50659513602757,13.338702542355708,0.6431793597791866,0.4801955567513463,1.032098259730258,0.2550694015863139,45.193893178298566,55.79766002024872,63.35236734693328,0.0,-0.1683947180127138,-0.11319056405807845,-0.12671187516396007
2.301999999999968,hard,4.003423370507455,17.265492648644177,10.814524570871667,-1.4594879186143108,-3.0792720520146357,1.1855542970994075,-3.1745832192769323,-12.449806413862083,8.319769736264718,2.5178062495878786,14.241639387643245,13.77260064625908,0.6126808796404966,0.5321050858165808,0.8400557692995797,0.25573345094588074,43.365432423004236,54.39688689246317,63.67729258797223,0.0,-0.1633553722873937,-0.11900114389261907,-0.11922119976752385
2.321999999999966,hard,3.9308699774353673,16.764146887740196,10.8371442132763,-1.436010466182359,-3.0664554209042123,1.4191520976498562,-3.167007704878456,-12.01385386948087,8.78836118789015,2.4668284761430197,13.946024175422943,14.106907965453122,0.5832240613231474,0.5429302419997358,0.6819210063687311,0.2567216625039388,42.17281141355199,53.33295547380328,63.627988304189266,0.0,-0.15900440497605176,-0.12458122265737068,-0.1123915803667243
2.3419999999999637,hard,3.922905932986198,16.345946800884153,10.893476877109954,-1.417630722164801,-3.0308158247168953,1.6275200115397945,-3.175432633787773,-11.605752943325832,9.238969308916953,2.4027671522696443,13.619986835348982,14.357909229972643,0.5440544125030251,0.528736382117655,0.5636814722407346,0.25797373300680065,41.38472910694352,52.6540840466586,63.37678590947632,0.0,-0.15536413745153968,-0.12980958407789275,-0.10601273874291804
2.3619999999999615,hard,3.962304921219021,15.987371795977769,10.961015490209817,-1.3991953670373818,-2.9753945797481265,1.8118162352618956,-3.1957423030447947,-11.227643196706602,9.673829228390739,2.3264627380300884,13.27891108017348,14.518239976071326,0.5017378249492412,0.4934541683232812,0.47186656456216897,0.259443789462563,40.84219475807185,52.34009602720275,62.88165315341278,0.0,-0.15242649935509134,-0.13457946571849763,-0.09992468702043827
2.3819999999999593,hard,4.042797842165063,15.665475889696856,11.023911781187687,-1.3794217799815913,-2.9027254390634347,1.972556333937792,-3.2249125341653495,-10.877749903840298,10.090586933832796,2.2400782095101652,12.933948096180071,14.580849660597929,0.4590609444876019,0.4384531853132391,0.39372888127212824,0.2610959487266951,40.46869292424907,52.33681692858611,62.083374476569695,0.0,-0.15012196002309344,-0.13878532017770664,-0.09397913109930144
2.401999999999957,hard,4.166096906676698,15.36928243903985,11.075494737721353,-1.3573473545863624,-2.81577708689346,2.1101538742784784,-3.261125989244996,-10.558932073197749,10.490009944931806,2.1462572793411767,12.584362809463958,14.55633610512446,0.41686410740617125,0.33998260557129456,0.29006061656514853,0.2628992609308796,40.23480933071868,52.64146211135829,60.51808529612778,0.0,-0.14832956363757765,-0.14233075650867258,-0.08803000326680659
2.421999999999955,hard,4.346955797298304,15.087399694077073,11.110361929132702,-1.3313696261941008,-2.7138847544125397,2.2262202546462575,-3.3117038106032446,-10.284008338339302,10.888669390158071,2.052283124019572,12.168021233235454,14.551663545525146,0.3388274511476539,0.22279582654559166,0.2116462677207312,0.2648116534033236,40.14389378707532,53.35073705166265,58.58625474109468,0.0,-0.1468279061176357,-0.1451930844858168,-0.08189645269620843
2.4419999999999527,hard,4.562257129451954,14.845218758659609,11.146509586587488,-1.3098543453916298,-2.594023805090817,2.3200931783408887,-3.3638957597291608,-10.03851772218051,11.267386942833014,1.9284057690580467,11.82678323909827,14.367564001525292,0.2770734954027162,0.11350888256745402,0.1777494891729508,0.2668042034229649,40.2308554409672,54.30099429035033,56.97956482566994,0.0,-0.1454262683440607,-0.14724517078054458,-0.07544609196896254
2.4619999999999505,hard,4.8176263906568595,14.626300121701785,11.175042957180032,-1.2889300706331352,-2.4635921211962133,2.3920353922079842,-3.419891159394493,-9.832468757157631,11.626394499204732,1.7928161723218012,11.507316605375657,14.117633669443466,0.2140915965039275,-0.014638947586599465,0.1539303138814627,0.2688650379581313,40.45245546561915,55.48681904851889,55.14659708530901,0.0,-0.1439232326424413,-0.1483516832158085,-0.06856338977357647
2.4819999999999482,hard,5.111709177418,14.419700648291927,11.190438734073272,-1.266500387450706,-2.3230931459148874,2.443389530837573,-3.4763357359716647,-9.66833162545259,11.959942472005519,1.6388387874688504,11.208462971527211,13.796032142793743,0.14946412183786223,-0.16543692478901167,0.12983641516267186,0.2709846487703147,40.77549139271679,56.88067398883998,52.98592798528847,0.0,-0.14208971490877104,-0.14840832487448755,-0.061115028946954066
2.501999999999946,hard,5.442664182600911,14.216535099084277,11.189978137087529,-1.2419727976770731,-2.1723197732885797,2.4754436084593356,-3.5291249718015467,-9.55082045537581,12.26373045515314,1.4623918966403373,10.92508624636503,13.40880421136505,0.0800164839697787,-0.33775080077358494,0.10645357797165493,0.27315370658762766,41.182452474980664,58.46567245954613,50.556110588124504,0.0,-0.13966057600590825,-0.14732629219168178,-0.052946850396530236
2.521999999999944,hard,5.80266167206934,14.011104496157296,11.17412159030451,-1.2164087870490023,-2.0115963615328756,2.4891009190957094,-3.572436706205856,-9.475773441624723,12.518252745384592,1.2599197277250647,10.653708884382572,12.971875951386519,0.013310261705949643,-0.5242306000153322,0.07780908354162641,0.27536282199531853,41.65702578136759,60.074235798382205,47.954327426220516,0.0,-0.13634751325057326,-0.1450121234367328,-0.043892080488728454
2.5419999999999416,hard,6.176821272112013,13.795108146570069,11.14129423087434,-1.1908665281464452,-1.8417467955234033,2.485239014754245,-3.59776282920693,-9.433245396327944,12.706349778306478,1.030133760655231,10.388516012812932,12.501026589424422,-0.04478929070780683,-0.7180502026740991,0.04016653191398775,0.2776002608556738,42.16313308780457,61.6168390953559,45.276828437598176,0.0,-0.13186160779428147,-0.1413751601769111,-0.0337962459616323
2.5619999999999394,hard,6.548246618461802,13.561309894830138,11.090238169422266,-1.1661647509079813,-1.663538709614134,2.4648574761721376,-3.5950600138828155,-9.396658316501831,12.834341965612817,0.7763743860165246,10.126302544990262,12.008523088145544,-0.08337993491513906,-0.9158554706569463,-0.006312863621661597,0.2798508535877559,42.657300327077756,63.083843663080955,42.59529213644561,0.0,-0.12591967233403667,-0.13632779207951007,-0.022536677281280306
2.5819999999999372,hard,6.887492680340256,13.284865605918736,11.003432706099211,-1.1492474704154465,-1.4816078150427896,2.4270856923121755,-3.555659769258436,-9.223449891216305,12.930538787058588,0.5138876599162365,9.848596003472963,11.51003991697307,-0.05815310461916592,-1.1015408836713263,-0.07475555276785754,0.2820952650312147,42.98509033013457,64.35665631064244,40.0728116835904,0.0,-0.11825182475309871,-0.12982000554542833,-0.010065709035816254
2.601999999999935,hard,7.13882238452748,12.910234135634909,10.807171575887496,-1.152863654972077,-1.3044114995668163,2.3695686054101914,-3.4828789349419558,-8.701720546414759,12.971843658012137,0.2785511819565296,9.500024326487594,11.034640630544533,0.08244290908117091,-1.230030074722155,-0.2085401847271257,0.2843031660123208,42.8672865239476,64.67283880304524,38.12324217064485,0.0,-0.10863891335424103,-0.12196941151992363,0.003462188348882428
2.621999999999933,hard,7.239164325529903,12.398298045970824,10.46064665243941,-1.1794845503421951,-1.1266307280149523,2.2963202751805074,-3.4075733667743813,-7.948897625138217,12.846540166138986,0.07545840113520286,9.044216741601456,10.615040328443953,0.27242603499987,-1.2765465635688835,-0.4313091852573804,0.2864168722298349,42.084951402855324,63.51558909573103,37.11860842498046,0.0,-0.09704355032896483,-0.11311606791794264,0.017598408975283145
2.6419999999999306,hard,7.193418316642724,11.79821713314944,10.041620812562908,-1.1977373018507504,-0.9362719336456191,2.2166430753559085,-3.3660207465361913,-7.154635389718893,12.641681601861054,-0.12285207652921315,8.525819873568823,10.264347557861115,0.4364364204466708,-1.274378180025643,-0.6397246717168824,0.28835058040498734,40.89279937533582,62.00997894582099,36.97529466822615,0.0,-0.08373085383120532,-0.10353354873475687,0.031755320991571766
2.6619999999999284,hard,7.101829505124262,11.196384636335438,9.589588097134023,-1.1964853998628417,-0.7357453956447699,2.1330028209584153,-3.289349882408538,-6.3744153875027925,12.454426173886748,-0.25503533901722286,8.000396787509832,9.967454755373545,0.5749699177487466,-1.266203463026157,-0.7754018454349126,0.2900258294150389,39.767575731206584,60.81490137308804,37.33870947217663,0.0,-0.0688628273478841,-0.09324637811187407,0.045381276338513285
2.681999999999926,hard,6.983301439311477,10.583950344431678,9.201719867823469,-1.1937646430812432,-0.5320672075621511,2.041444693175965,-3.1783517988742123,-5.6009442384298564,12.282698040133132,-0.32003744659110867,7.491447151641461,9.692575005069575,0.7044546642125706,-1.28414272460298,-0.8982986418383461,0.29138742844715027,38.626232342406006,59.78949412654037,37.80820487558789,0.0,-0.052439878610050866,-0.08212910326235,0.0580008607639267
2.701999999999924,hard,6.826621070203644,9.979261846597211,8.867536309229848,-1.1896028254161497,-0.3295574019110621,1.9422675162050194,-3.0760582388416973,-4.82129910323464,12.096901745782802,-0.35485218397199847,7.040787081425573,9.347438120450859,0.8578670204484677,-1.2820398690308472,-0.9584792119472562,0.2923916659643208,37.585118897865776,58.64582027831606,39.09743598497618,0.0,-0.03458934525617652,-0.06999719074058716,0.06923655545615164
2.721999999999922,hard,5.893977613800254,9.245084042238203,8.110235420617993,0.4446084140008617,-1.1495867083599087,5.845302116812026,-3.7000557575996535,-4.481724508793319,12.088721649712262,-0.953415683764933,6.63228806077036,8.786856809623751,-1.6862005961476239,-0.11813104446590118,1.6137065796200278,0.29319413754943174,30.458400600556487,52.57418035005423,60.61928149996703,35.10246124324319,-0.01749558068629006,-0.05779814644407614,0.07814369293399423
2.7419999999999196,hard,4.69757574389099,7.570210193767798,6.077808749147442,0.35129455877074145,-2.449360147175536,10.32084429887779,-4.059140761629298,-4.346127533653302,11.708417582775398,-1.3894621084794456,5.866619887562841,7.7642788291847475,-4.0039581427643265,0.9882942155729819,3.087709831315292,0.2947622567897321,19.502466602618043,88.77857061438583,59.35971328424708,30.169471036086776,-0.003630075976437856,-0.05049090108265518,0.0846490591393534
2.7619999999999174,hard,3.7340562631494456,5.544931059189505,4.233638498886792,0.8254647815869958,-1.1706662552311466,8.532586279597465,-3.646419399033283,-3.3459347249074995,10.998380677624093,-1.1595508676689887,5.3595514389766645,6.901142745777809,-2.6488656260150862,0.32714971925236125,0.07774879119311116,0.2973370908712643,11.979977650528722,59.36046463026153,53.025782188674874,26.44398757800459,0.009548453173759092,-0.0488081576650591,0.09037968811929899
2.781999999999915,hard,2.3577694030288567,2.824881956005002,1.4254104098906928,1.4681628442357297,0.5142925424827467,7.362324134852835,-3.2991720295209106,-1.6654902328525734,10.56052794332262,-1.0202087004143545,5.089803981497816,6.557691304756106,-1.6242986050224335,0.3722052714948442,-2.003807808008688,0.2998495526612351,45.342369143123605,47.32894815233336,27.108082726949597,0.0,0.02333408822232454,-0.048621060598408,0.09607754768768298
2.801999999999913,hard,2.019952172540541,2.0706219874986083,1.0280756027540456,1.8420461493970472,1.7038403699173825,7.536048765527671,-3.2323239067669096,-0.2444325529849034,10.64931756277865,-1.1245676447659898,4.5451175793671075,6.510645462648104,-1.1540419450256938,0.41840636594939984,-1.6959055710273638,0.301619472765108,44.92777701283192,47.251155987930495,31.446242415381086,0.0,0.037041250541660124,-0.04794560764405086,0.10212170528051889
2.821999999999911,hard,1.9376966422638184,1.6878355863200456,0.7446370130801521,1.8755574034161124,2.7727949289723424,7.916486512750754,-3.262558952944655,0.834895394151367,10.967545630818758,-1.2549551219755268,3.7445313887389227,6.689037990350595,-0.9502385523156008,0.4916726271059041,-1.0382980720230641,0.3027463012716205,46.20074172626925,49.810753599902206,37.29535002529253,0.0,0.04970306668453943,-0.047661326978781796,0.10775628573697171
2.8419999999999086,hard,1.8884762480875663,1.3452794446655396,0.5049090111520975,1.8232961402658177,3.943287843190248,8.17785360558995,-3.2615458987210073,1.8686011666731788,11.28245230819519,-1.310318608518985,2.9397841982773563,6.819290835788214,-0.6740978068453247,0.49841972464019707,-0.5879977351400784,0.30347332350924616,45.78900872004453,52.036790401800424,42.085849149416106,0.0,0.06127862964522083,-0.047747785993406074,0.11258118605719825
2.8619999999999064,hard,1.8359958681948665,1.0096839442942933,0.30344648363607973,1.7575077896121793,5.146574586554429,8.289777771062719,-3.22658249235318,2.8719999100357394,11.499961837070394,-1.310336157841257,2.1041949375638924,6.813032537424336,-0.3552978533831828,0.4577942967987485,-0.40072696238423766,0.30396766245483503,43.929563079176056,53.277143572451656,45.45314500430929,0.0,0.07194867166244256,-0.04811346860151101,0.11652658424320028
2.881999999999904,hard,1.7783218503296792,0.6870815478761756,0.13998994623184546,1.6827897000076542,6.319122440144834,8.344182063659902,-3.178336743067952,3.8270593374441035,11.649167774065129,-1.2824824182341223,1.1855791696043707,6.721428711103228,-0.07664463357945299,0.4073278618386723,-0.30737849884230356,0.304303071069064,41.772169692746,54.00024293091619,48.27926121799137,0.0,0.08189386333016149,-0.04873880942047991,0.11963731679089958
2.901999999999902,hard,1.7299554180973749,0.2992544206980854,0.022863473484766084,1.584517752382512,7.452603354037484,8.414583836784123,-3.1349805208796746,4.74546166108378,11.76204743051309,-1.2461439231043585,0.1785345875045476,6.604889464022258,0.1590911079972435,0.3786722630897549,-0.2217146574718029,0.3045183511895411,39.98146903770812,54.461088094002314,51.08236050449681,0.0,0.09122614887907922,-0.0495478414738999,0.12197367193669345
2.9219999999999,hard,1.676885984056104,-0.20669380702770146,-0.1062744382511221,1.4610708180252565,8.557009625152906,8.513202535724062,-3.095702922414616,5.646356448974447,11.830926619238715,-1.2002547386315134,-0.8972235224679447,6.4747501677526245,0.3035062782048736,0.3617253245971191,-0.09855267173466942,0.3046509500142973,38.86198531524466,54.45827296830174,53.798328058909874,0.0,0.09999293041019126,-0.050424460356352244,0.12357817058710895
2.9419999999998976,hard,1.63493506026384,-0.49629880283927474,-0.2845051789217152,1.3071820775943652,9.6375481062058,8.590649571840485,-3.0649473397645726,6.521494636204531,11.853146670162886,-1.1489736305827145,-2.0410511191873817,6.327418812400598,0.42385003246646935,0.373006326542256,0.006730130684021395,0.3047467875846486,38.185735563718104,54.06454165880855,56.42038200605343,0.0,0.10822032469465313,-0.05129814738253989,0.12449571177816098
2.9619999999998954,hard,1.6120784030819741,-0.7674546837771292,-0.4170865089401697,1.1463970809349713,10.68280539431281,8.668957616005896,-3.01955911090254,7.371092991435637,11.828393387812689,-1.0693730676488904,-3.248549629361697,6.167219812028749,0.5126366573853482,0.40718441552113316,0.08661150637000858,0.30484704444375815,37.763993739419185,53.2363334836066,58.96670084550389,0.0,0.11591064177711838,-0.05215056219720787,0.12475408067563029
2.981999999999893,hard,1.5696589495877773,-1.0268845206105381,-0.4884604243474403,1.0075775614124673,11.67983749564957,8.761665392833825,-2.98048996723075,8.225804402091876,11.756102681513827,-0.999686293551976,-4.521922655039882,6.003263966263269,0.5956474493288879,0.4343600957600103,0.12858383801207152,0.3049819995721614,37.129675249373626,51.96200564605976,61.454553416336864,0.0,0.12313369534066149,-0.052932532441068145,0.12449344345422644
3.001999999999891,hard,1.5314023925516898,-1.2761988258172492,-0.4997006451411121,0.7696048581120585,12.639371797468492,8.903999327790457,-3.001069653380558,9.050274756762715,11.667864695649833,-0.9665890364704393,-5.81683598084383,5.8254474943925105,0.6689218528341015,0.4610882485303324,0.1451836642413837,0.3051676668586602,36.49144110096607,50.69191622244239,63.59942824664756,0.0,0.12962637405414,-0.053576482863866626,0.12372626893718743
3.0219999999998888,hard,1.2525796625183836,0.2782649528842718,-4.52201292321149,0.4722905839916696,12.559185548428662,1.1853331813396455,-2.7336781739687637,12.141959174345427,-0.4761137893831595,-0.11622889991696594,-3.763556806797956,-4.308038655356524,0.6210742480138438,0.4017419509094479,-5.934515605081199,0.30338412942990994,18.573146712551537,16.84483004539802,21.99270344530954,0.0,0.13750206768301804,-0.06190823660263522,0.12129788269276086
3.0419999999998866,hard,0.9591285832491163,-0.43540349030382175,-3.9094591883496683,0.07068182942881318,12.0308884308501,1.4490805821599348,-2.615029311365094,11.87737442597162,0.07692124415102519,0.38883271879919223,-5.736277600269451,-3.487691098871956,0.12956540668290897,0.4347139072443876,-5.292023141787753,0.29919543379550523,18.649738915265385,17.659002790509096,30.279597010036454,0.0,0.14628003819261656,-0.07446704422831495,0.11639748023102643
3.0619999999998844,hard,0.8880075676839885,-0.8168519278264996,-3.3709685420675513,-0.7058103622846018,13.074740784772846,2.73335400676401,-2.7198258509251834,12.797871723831605,1.6574673478691793,0.826851021692695,-9.071131290971552,-2.1640224861023576,-0.488519066598336,0.583154829810937,-3.0157291781954423,0.2929832703740237,24.253176354909062,26.63848635624885,51.33912705152886,0.0,0.15405618844620617,-0.08705908324830486,0.10858905206767333
3.081999999999882,hard,1.0716304183339747,-1.0311644352701883,-2.884426952582545,-1.8897977711564866,16.033089140336354,5.353719308226884,-2.92987599498175,14.400905349308566,4.288814928720035,1.2336430891745112,-11.948099076925999,1.1560913935584338,-0.36641451798530195,0.9946928615367479,0.8826225250137643,0.28578339681044396,37.50430614247477,40.47961428438839,81.13249411521969,0.0,0.16018381520323732,-0.09453296884019456,0.09784445035036729
3.10199999999988,hard,1.3979346698407746,-1.4577353173802106,-2.542449701880366,-3.249287931362855,18.800191896450727,8.34095985061006,-2.968042774197234,15.699399979758548,5.895748138316669,1.7178760417582581,-13.028963974130015,2.541991197034628,0.14394286419008515,1.3161394783396598,2.2803740043482073,0.2789305667921077,54.574930182953075,42.87486197939638,82.69311518797066,0.0,0.16454163727841417,-0.09591802002826133,0.08551743410936963
3.1219999999998778,hard,1.5256933441518943,-1.8270142703963685,-2.1527399282007202,-4.094413838469425,19.993793359454546,9.734581850061554,-2.945551121801708,16.11395432315348,6.833451186984952,2.142008628523957,-14.417800855268032,2.655454970427601,0.1459356620799206,1.315081406229104,2.3768334412187375,0.27295529911640615,58.869624985461,43.64370879540278,79.83554492576671,0.0,0.16676524634356388,-0.09621516687033006,0.07319662973790958
3.1419999999998756,hard,1.5107172999021865,-2.1045628800912715,-1.7249469794643506,-4.601115322400599,20.763596064728528,10.107225640456882,-2.880905190843565,16.37506864224081,7.797656701939468,2.5872505276756943,-15.766057551047618,3.0479697127830576,0.1817988779159098,1.1943454811207244,2.367112526010343,0.2679153695993369,56.74123661093078,45.888597058449385,79.91224861466608,0.0,0.16684106677441474,-0.09699082936467211,0.06120040863179412
3.1619999999998734,hard,1.5018232500139157,-2.3531851794456067,-1.3268861374165692,-4.95326117247941,21.081701069942447,10.499326583936124,-2.8277210873734187,16.58016750993364,8.828667149613535,3.0287136023506953,-16.674299594968314,3.5032146346235358,0.25912125421157456,1.0194844470041737,2.3848459646415034,0.2638111423235173,56.439334794459356,48.80110882397763,77.73754714315152,0.0,0.16484504643584966,-0.09773655938532626,0.049272859173988555
3.181999999999871,hard,1.5030797368035154,-2.558313623251954,-0.9515976691145278,-5.190374436331018,21.015556417730714,10.801323239061542,-2.808051213717768,16.666508108871273,9.802426528547958,3.3813912434657274,-16.86963646098996,4.001849593640482,0.3585166895293133,0.8512635106806558,2.353344170442016,0.26064936685573936,56.12758025283189,51.65560402227291,74.69204554200434,0.0,0.16073104806032631,-0.09854218480550428,0.03737245162725465
3.201999999999869,hard,1.5271432706813581,-2.733382991484979,-0.5863780922939217,-5.224935801894105,20.57489837401992,10.900457795090094,-2.790921025520412,16.54266101809235,10.76183538948202,3.6162341984532076,-16.367331432306965,4.471220063223764,0.5427359705924977,0.5716800822370091,2.0992599316592786,0.25840401431837445,54.60406509917921,55.046209645670174,69.36006780396714,0.0,0.1547094471657588,-0.09975955051254509,0.02567202008344037
3.2219999999998667,hard,1.5481130048150593,-2.862520662958138,0.02272793585831115,-5.0298015042109485,19.850087328297896,10.827697568470517,-2.7614999655019994,16.23082053965037,11.726773430473127,3.6930006813816574,-15.532772894299978,4.93004219103391,0.6815304437577078,0.19995644930321876,1.7511646420674236,0.2569729724565382,51.998555080777024,59.01586685984601,63.22703780257065,0.0,0.14739869929702584,-0.10187281490839042,0.014642531097034677
3.2419999999998645,hard,1.5533421212539948,-2.9520298857373177,0.3469626439551661,-4.678052824955266,19.01024402744587,10.67999897599663,-2.7015326653705465,15.803455844590442,12.655456188438873,3.6337415915840983,-14.576368207445537,5.545822339643289,0.7600864513127684,-0.1782299223873024,1.4129989667725646,0.25621905248948873,48.95813980714702,62.96124056842905,57.56245691091693,0.0,0.13968525175537994,-0.10510830935295837,0.0047577207556799735
3.2619999999998623,hard,1.5316409167603013,-3.0063874494109353,0.6547891159714974,-4.319605359625503,18.23598455649011,10.567302872170691,-2.6470937539305885,15.389529406851889,13.446287576400257,3.530908346312306,-13.861837617110611,6.027012169778207,0.7298617227369927,-0.43398126885727284,1.19475164569958,0.2560156568484662,46.30049399616224,65.81553602188586,54.46972171714853,0.0,0.13227117020753124,-0.10930485370718747,-0.003702265318992457
3.28199999999986,hard,1.4977812582094288,-3.036713040757199,0.9401015684929401,-4.052522896631203,17.597480735957124,10.548307677681347,-2.6096720198704237,15.041545580590435,14.046800467299885,3.4510514596564033,-13.3372137986557,6.56155976420669,0.6856917033175772,-0.554190664944145,1.0156207982054148,0.25627734727229284,44.24263350029941,67.1424166521047,52.711989822833495,0.0,0.12547936471839574,-0.11397139431593283,-0.010812581591198599
3.301999999999858,hard,1.4594927444019494,-3.045883797208406,1.2012559752080678,-3.8609146256952354,16.952237686212285,10.767767756099715,-2.573007248852651,14.726191161662268,14.49087842448773,3.4013482114264146,-12.841549523534958,7.070760330546709,0.6406950149645337,-0.5987826484409867,0.8144739645334256,0.25692968561079854,42.41499269109655,67.40739728758847,51.229914070147416,0.0,0.1194308098342334,-0.11865522379026747,-0.016846163536090364
3.3219999999998557,hard,1.432485782769328,-3.0359302188440402,1.4336699952287453,-3.740122212340971,16.45973771759376,10.80923690814418,-2.5379019571603356,14.377666622581838,14.84044512701229,3.370317037337535,-12.37458745609283,7.548231166352387,0.6063085301113257,-0.6016639778348838,0.6554333517998542,0.25789591149801344,41.26629597748181,67.38856748929747,50.07532908855935,0.0,0.11415905984027075,-0.12309572871990929,-0.022105517899658367
3.3419999999998535,hard,1.4104723375017398,-3.0027011023820664,1.6410732190142356,-3.691277357444195,16.053150835883393,10.888039179393974,-2.4918850566390773,13.998536326348228,15.103105078722116,3.3588698201583504,-11.94207920877422,8.000553919655548,0.5732613235793452,-0.5799520378626121,0.5436774836028091,0.259115801579909,40.55168666723151,67.24227798788647,49.300404655930066,0.0,0.10968358492629562,-0.12716949079319245,-0.026820597264422465
3.3619999999998513,hard,1.392089656425483,-2.948975019551084,1.824043558578456,-3.689770122722431,15.712860927735736,10.98575991021838,-2.4316633318187106,13.606747246339275,15.266074968835609,3.365795126444672,-11.550388001805352,8.432480314187904,0.5466741440987004,-0.5355325233848147,0.4607377829286055,0.26054606164199917,40.13446612113345,66.84014473425513,48.910952690208795,0.0,0.10599788516436788,-0.13076116363958426,-0.03116199440111294
3.381999999999849,hard,1.370504996711773,-2.8781950484702197,1.9838239875465078,-3.7316980811172917,15.411813561355348,11.081937787495049,-2.36654489511833,13.21392847938737,15.32231715890326,3.3827051220286437,-11.198263744727255,8.84350015798726,0.5244615982940053,-0.4709111247300251,0.3903930023439688,0.2621542966308752,39.88683387528327,66.08215791884948,48.86021603604351,0.0,0.10303802131815783,-0.13375851743475434,-0.035264372391855016
3.401999999999847,hard,1.3481993956945075,-2.79218956448924,2.1204814033199595,-3.8183227827436754,15.136493404967677,11.169075115061922,-2.297972287710005,12.821899066028578,15.277724924662676,3.410064762006498,-10.88604702636833,9.233733306056124,0.5078896361868235,-0.3675383372707004,0.29872272451826604,0.2639127057810493,39.78416927393653,64.59477650480306,49.126712161107704,0.0,0.10066878964376057,-0.13605812872759496,-0.03925959633918471
3.4219999999998447,hard,1.3205169985999317,-2.6930976564739497,2.2356160149466504,-3.9680323453423005,14.870202465798126,11.238801631700271,-2.2356004999163046,12.359589844044624,15.253775724257771,3.4550018353882805,-10.629233719482123,9.618909711111504,0.457833849468422,-0.22428243392345598,0.21044324412440701,0.2657815754601542,39.82030448750988,62.43692043389516,49.81717233443587,0.0,0.09865413101676004,-0.13762625551468585,-0.0433122967451602
3.4419999999998425,hard,1.2981961149639671,-2.573930966171096,2.3289487378335316,-4.153852116733952,14.641392026436353,11.311702929998315,-2.1455486764975893,11.973117623912485,15.043482133997536,3.5063665692010506,-10.40935165455614,9.981012448391088,0.4193302097427927,-0.09499914714445204,0.1768232872293754,0.2677302567174319,40.04328408803934,60.706803178502575,50.76095866067548,0.0,0.09678864010322916,-0.1383369844284017,-0.04755111915010696
3.4619999999998403,hard,1.2761508715759862,-2.444286983327707,2.4004135477263073,-4.384119111052606,14.433270759211908,11.378900971424864,-2.0452929847326224,11.610575857308277,14.761084967087255,3.565162099945821,-10.237143826283756,10.31931489914356,0.3808727616392464,0.05557276456972828,0.15149619167552836,0.2697468334852831,40.41255407578531,58.7130670144233,51.944076998962196,0.0,0.0948608565755413,-0.1380392792045047,-0.05208641606124303
3.481999999999838,hard,1.2529005197822367,-2.3044160640733997,2.4513286789360436,-4.657059137405733,14.234399845422335,11.433471740046606,-1.9277312262173012,11.270154535240177,14.40311599892876,3.627827879565523,-10.113251313235981,10.62571569065226,0.3438604854783901,0.22914884892182477,0.12304844477373804,0.27182104318111494,40.88604225007168,56.365724725036266,53.31822450678218,0.0,0.09262614665379221,-0.1366153098555616,-0.057046523546570325
3.501999999999836,hard,1.227823826630021,-2.15422532698613,2.4829804799039863,-4.97023976087069,14.035545351473315,11.470271343741793,-1.7879996378660528,10.946066971537103,13.976049561971664,3.6901606999669943,-10.041286050823503,10.893355779683548,0.30584096267485494,0.4237176765899855,0.09075543396775813,0.2739415874281975,41.43020385963907,53.73235361707442,54.8502222094381,0.0,0.08980561433585207,-0.1339644659886996,-0.0625763925570366
3.5219999999998337,hard,1.2008446868717249,-1.9935014221857337,2.4966078056119176,-5.31665706485796,13.833266581953588,11.489331720994995,-1.6216603444555275,10.63622420197665,13.496090568328423,3.7462151512517843,-10.02340424001396,11.11226451177678,0.26885000742578485,0.6348506671363591,0.0560090559377651,0.27609570885012985,42.027241350556565,50.90895252015582,56.48428392895116,0.0,0.0860990588587873,-0.12997987042363907,-0.0688302694762178
3.5419999999998315,hard,1.1728102516377032,-1.823505464993172,2.4929479797514373,-5.684550889196039,13.62297425153731,11.49225083984808,-1.4250141676975754,10.338689661770006,12.977310588190443,3.787261627659725,-10.051782184367132,11.260848590180938,0.2425325941987987,0.8543640727044016,0.008767605409774405,0.2782691796738058,42.657940311966165,47.97063985904468,58.020364464560004,0.0,0.08119495187602033,-0.12453937698584329,-0.07596227218109267
3.5619999999998293,hard,1.146272002334651,-1.6461910563674786,2.472413770883838,-6.051090884598479,13.390066630915545,11.474011931344469,-1.1980446066705062,10.040674538712503,12.437796859363292,3.802360308845389,-10.095045990070707,11.31104223242751,0.2368203873627214,1.066659959342628,-0.06446783016170532,0.280441803907017,43.25988314123421,45.060238003135915,59.22562179186752,0.0,0.07479210659531195,-0.11753638191769819,-0.08409856053665957
3.581999999999827,hard,1.124477509174791,-1.463813630408609,2.434971782577956,-6.395005724449852,13.142468394154667,11.387295558842801,-0.9518573528540745,9.726444120396298,11.895857010510422,3.781712466959745,-10.096617870056185,11.28505846836172,0.26603071069431705,1.2657234336940129,-0.14304832597576395,0.28258436129193176,43.92479487902444,42.34689370511798,60.12707323589936,0.0,0.0666107981606821,-0.10890510914165027,-0.09329667708065627
3.601999999999825,hard,1.1187862337291326,-1.2820198786246046,2.379175687771353,-6.687840601514622,12.86513881900995,11.165217335382438,-0.7130984226499804,9.357447358090335,11.37148175996768,3.729494628973904,-9.88386089207506,11.226767693688657,0.3698669539224758,1.4216417221499849,-0.2537464286593835,0.28466422881858344,44.38993272790182,40.10512231121085,60.50459139078297,0.0,0.05639283560354615,-0.09870578496275469,-0.10346784769767428
3.6219999999998227,hard,1.1269215147730287,-1.1001426624914519,2.3086967687045004,-6.857263298432304,12.412990086621774,10.904503389541619,-0.5105406851713921,8.900602287038934,10.891408682311564,3.6593379479763906,-9.346260571290347,11.056403838127041,0.5421996366846403,1.4798449073266018,-0.48203630957964777,0.28663102589018263,43.96643607537112,38.664554553252515,59.364852554788925,0.0,0.04398597570805095,-0.0871626089237287,-0.11427542558873681
3.6419999999998205,hard,1.1454765183386593,-0.9122877072951181,2.2279707153181985,-6.835002205179874,11.800843878680528,10.556592725585856,-0.3250489149751987,8.358596756782443,10.480709742145295,3.608782779420919,-8.645253400765796,10.734891490417585,0.718571655249918,1.4589510816138558,-0.7787495540954226,0.2883921495676321,42.77911140131369,38.198630469665126,56.96224317742225,0.0,0.029496033277540593,-0.07454120680922016,-0.1251766586727603
3.6619999999998183,hard,1.1476536819550112,-0.7125966605277056,2.14343897363465,-6.685752305545629,11.125120034184263,10.157421715395465,-0.1648280618229514,7.776133528221237,10.139134129930566,3.5703957456664854,-7.91797546791043,10.377127313765664,0.24612578082854492,1.2357294401502354,-0.6863787006997324,0.2898353148379306,15.175522681809069,41.187161164088614,38.11259842426215,54.5822900382486,0.01324028482282823,-0.06095699483539511,-0.13558704403779342
3.681999999999816,hard,-0.4734589422864124,-3.078397235866519,6.8180552013420765,-5.48538417960564,10.308258274912824,9.254590114032672,0.5441564379629904,7.5640682229074105,9.369320711105425,4.230382435872642,-7.564933351629234,10.171310413894952,-2.51517590379445,0.15419068922559573,1.996064516704247,0.29117292743609285,62.99626701590976,32.75324786425329,33.316104453071624,54.946435863240985,-0.0018946421488032772,-0.04778663903331659,-0.14399587375575088
3.701999999999814,hard,-0.36248475174223815,-4.558463842291495,10.989729932110535,-4.244526551426372,8.463736735270079,6.933513455449946,0.900685332939041,6.985726856636675,8.215219731874704,4.453467278665582,-7.273669923106269,9.684720040143361,-4.608690226896337,-0.6683510655828776,2.8625196745220216,0.29336565785391366,93.42394382844608,20.92866309325406,27.268456613310505,52.553400632621575,-0.014553127418048806,-0.03992192079765401,-0.15050958461968378
3.7219999999998117,hard,-0.9707999051631779,-3.2063656000489953,8.86418310747307,-3.370769437687606,6.324035773844194,4.989687471949767,0.6813358310584555,6.592677148161612,7.36780403514362,4.0408015619017394,-6.128485667498051,9.057538423922097,-3.053195862200581,-0.12006083975622209,-0.2579091123926058,0.29647590961795733,62.60857902782457,13.287023689607839,23.458913368894063,46.39698459169757,-0.026930007638673842,-0.03755770173777679,-0.15668254650973623
3.7419999999998095,hard,-1.6341304048047371,-1.5270901259540217,7.746745572168143,-2.1713536812368113,3.2751774083178278,1.7929345123797278,0.6935051506473637,6.419946369133844,7.03573577009018,3.848622356378539,-4.349190100106776,8.775039546942326,-2.153334901895066,-0.2550943522378701,-2.3976312368911614,0.29938640399598293,49.91780140243582,22.904873175619493,41.26940958312395,0.0,-0.039772708718191406,-0.03651663911791801,-0.16317262319970482
3.7619999999998073,hard,-2.1338026338284117,-0.3883573963322158,8.074907578528343,-1.9194163243458569,2.482145925252075,1.3235917304237717,0.8853899878943435,6.081960133373569,6.994705453593096,3.842293746825536,-2.8608244922661594,9.038861803110231,-1.6813266877786492,-0.345380815607059,-1.9556879966940175,0.3014096706766184,50.96305006718639,26.46507329393316,42.20606473069986,0.0,-0.05224271480482741,-0.03494689738810029,-0.17039065352721258
3.781999999999805,hard,-2.3103690136408015,0.6273472403912377,8.460238201522646,-1.8570492455001064,2.09531931267796,0.9938254576989252,1.0652317168043681,5.546826515150255,7.123923309281306,3.861285720861518,-1.805819512319398,9.545453044968529,-1.4454218374797592,-0.3707727144396888,-1.2034629752003392,0.3026834067106322,52.22002273860183,32.533120495658764,46.281638470523234,0.0,-0.0638858339135892,-0.034114738972278534,-0.1774359279594797
3.801999999999803,hard,-2.342359872550907,1.8394794112801598,8.65045117535864,-1.8082397063331959,1.7556340236178878,0.71440188757173,1.167003329376626,4.903795467829458,7.401169539521959,3.865832213126492,-0.7527150437061794,10.030866064640657,-1.0792043940197693,-0.3723375073796615,-0.6566744888934997,0.303496149206107,50.98412185891491,38.380236000530935,49.615341901683756,0.0,-0.07460875797164718,-0.033928395040822075,-0.18376148261778757
3.8219999999998007,hard,-2.3201955264499636,3.116424007679222,8.674722461767715,-1.7611932938932258,1.4152469187337822,0.4690789798022701,1.2215646422522797,4.250161384050337,7.484785044741962,3.8540957555440034,0.2960830512547954,10.37822748270315,-0.6481726515998698,-0.33512922249462906,-0.4657327592277504,0.3040476084237909,48.2316788751872,42.034737295537575,51.464179336356565,0.0,-0.0844748642338241,-0.03410110353352975,-0.1891969400038195
3.8419999999997985,hard,-2.281337309142954,4.337943558145729,8.642403022534864,-1.712039686282115,1.0871805333399063,0.2610085349517992,1.2532727235987107,3.499583295717359,7.4199985659867735,3.8336569454540514,1.2798068248893695,10.634357872467987,-0.28803422038240273,-0.2820564980188021,-0.39448039768039467,0.3044129638734146,45.361573852487254,44.737975090373176,52.70872305018104,0.0,-0.09365372387944114,-0.03462948259548674,-0.19377175776217515
3.8619999999997963,hard,-2.2436915560408432,5.504093804998325,8.638036951678565,-1.6695423972028753,0.7801760398755586,0.08907761491746358,1.2553210704989213,2.634947683519849,7.317197255249026,3.793617935184234,2.21871754421523,10.841332375648241,-0.017184134652876482,-0.24795013386192888,-0.30181680715129455,0.3046242675564434,43.07720744656538,47.483777819316316,53.67268848505699,0.0,-0.10235125953807983,-0.03547526829939936,-0.1975571550817283
3.881999999999794,hard,-2.1808521835339816,6.635849842702417,8.679734361560403,-1.6293364341680323,0.47795679953116876,-0.05111742679700998,1.2471850970991416,1.6790689087270845,7.206779145795436,3.753578406784586,3.1375068370913515,10.998843982155691,0.20111468825294201,-0.24192123714567032,-0.19665696507576538,0.30471914029515795,41.36791986703978,50.31290910690436,54.19249938241123,0.0,-0.1106974312783221,-0.03651196277251167,-0.20059906140229758
3.901999999999792,hard,-2.0799195543666418,7.734387527779161,8.756988775265421,-1.5966583426175958,-0.07826046517713209,-0.28965803183031175,1.2316423055973633,0.6437963694146672,7.080239657843706,3.717849393121189,4.032869901248961,11.102414359125415,0.35094877136850583,-0.24867990307670973,-0.09160431596200777,0.30473939539450084,40.07657599378882,53.05595072598818,54.19883249024473,0.0,-0.11870500309003663,-0.03763605908955184,-0.20291626015516542
3.9219999999997897,hard,-1.9527894349194903,8.806600783597789,8.858992553467036,-1.5600498212364902,-0.37071761668525416,-0.523177094473008,1.2012134490216697,-0.4562761803704154,6.935114854691808,3.680944380504001,4.916680476732235,11.147205592777444,0.4743378057362658,-0.2757403191916997,-0.017873283641059418,0.3047243021418171,39.03866315045553,55.6686940152278,53.68723835013058,0.0,-0.12639682834459484,-0.03875517247167356,-0.20453618258569567
3.9419999999997875,hard,-1.787651096620126,9.848513430863159,8.981704899414957,-1.5339257023623718,-0.6448915762574328,-0.6000936382771569,1.1590755770784085,-1.619635325763335,6.7769321048923254,3.6483065165698307,5.774671377927615,11.151206763425716,0.5645802949534344,-0.3128488679370844,0.042230917616444374,0.30470310485219637,38.234691103688434,58.208697552239464,52.868585964143136,0.0,-0.1337376655922045,-0.03982073552797516,-0.20546882094475855
3.9619999999997852,hard,-1.6589409716992671,10.85567886102676,9.126290001707462,-1.5265404181648914,-0.8955530466940838,-0.6357228818222953,1.05758441961441,-2.8495791982257455,6.623666553221794,3.5675353807981467,6.622159952278303,11.109542896475695,0.6205786826365504,-0.38264203518959067,0.10064610700945235,0.3046996955439485,37.90643632604763,60.83149732926387,51.563752535379564,0.0,-0.14078830322534863,-0.04076909456950194,-0.2057496640767351
3.981999999999783,hard,-1.4976334252404258,11.843463143459209,9.219172061424944,-1.4900231273177873,-1.1427841984846685,-0.6445893488541276,0.9744303092792262,-4.135470203753409,6.459507841518544,3.5158924301569483,7.449799676033573,11.037578186664199,0.6484888639580179,-0.4310781746919818,0.18291829920025082,0.30473976767072164,37.90034616048197,63.34516323547362,50.13721455907754,0.0,-0.1475559883586101,-0.04156906878944763,-0.20547582920873692
4.001999999999781,hard,-1.2333923806918214,12.807960030141007,9.29459004633239,-1.4657868389359243,-1.3746285021172562,-0.6317885651531354,0.9422668170658894,-5.45010448634422,6.273717693104519,3.5346266124000594,8.244038338025254,10.946447517270862,0.6643176324898514,-0.47612711831923654,0.2345486809983656,0.3048533114064327,37.862680551379576,65.5303554970565,48.724005133156055,0.0,-0.15364532102938713,-0.04226188427888647,-0.204629877846547
4.021999999999779,hard,-0.8013862036513685,12.792248002688593,1.4622132577389362,-1.2004885380731904,0.1982685510215827,-4.622115018946523,0.185399098194443,-3.6257262858731707,-4.1434660663175755,3.1295374477069813,11.318533337847555,-1.0939409812712153,0.5050606142178019,-0.46419569502782454,-5.9789177846247235,0.3030052527814433,19.224388705768888,22.355074252267528,15.335742925225606,0.0,-0.16144542939861278,-0.05073233998600033,-0.2021224944754409
4.041999999999777,hard,-0.3740416135475906,12.327652443500812,1.7456870266957711,-0.8959785308842017,-0.5248922066089936,-4.000398509063082,-0.3382558305522565,-5.760044885381788,-3.295304871166101,2.995421154759163,11.134455107016457,-0.4915428034130169,-0.022273170769837494,-0.4523587270809066,-5.247514376024281,0.2987378589334744,19.47850686290869,31.647379017340786,16.284892054053298,0.0,-0.17053202719250454,-0.06326605679849465,-0.19715158547593398
4.061999999999775,hard,0.4403916266335992,13.558273127869285,3.126987059260385,-0.8281677191366569,-0.8686691703252802,-3.441805976414157,-0.7573151147166192,-9.24775928418042,-1.6931722164140695,3.1512920561166977,12.058406994236957,1.0329545262458346,-0.6172282509990618,-0.6387407079617333,-2.740993786179925,0.2924760216508109,25.717741515663473,56.10320099341214,24.380583307575474,0.0,-0.17859026847239307,-0.075440931732613,-0.18922762181262726
4.0819999999997725,hard,1.6705935412933939,16.625791940654064,5.80427214783575,-1.0525797071957754,-1.1079160939205064,-2.9654190643625906,-1.1112959661421573,-11.692210020023197,1.7374732056170359,3.3923841525101546,13.586022816174474,3.480726439078701,-0.34745727092406836,-1.0562009831092243,0.9079173297299876,0.28530905651365396,39.45549199295306,83.20861708319885,36.82650246949078,0.0,-0.18452372679045917,-0.08227370818338209,-0.1783402011537728
4.10199999999977,hard,2.8938649108284893,19.253542923463588,8.643828706576071,-1.3798233971200622,-1.5158763003710582,-2.609264592322508,-1.6007347294660046,-12.741006447438696,2.8643400742656446,3.4342744902532876,14.701102074987917,5.1690076826872104,0.057952890649472025,-1.2663916825077084,2.185431903639348,0.27849846112690246,55.421494705666305,83.10966858020686,40.44835841620514,0.0,-0.18847491233802827,-0.08365471257759363,-0.1660847669479381
4.121999999999768,hard,3.6259147008004162,20.435530971411303,9.905219925106898,-1.4892115334295397,-1.8681863219610966,-2.2031470754109694,-2.0092024558094534,-14.185799102877393,3.042986715389193,3.4169439026898747,15.131737580503959,6.194270534332482,0.05652962027524626,-1.2441628113808887,2.3321263292583216,0.272533142878003,58.88244641683093,81.16079828601757,41.71767796583549,0.0,-0.19042054832052513,-0.08420593799696272,-0.15407711404487906
4.141999999999766,hard,4.107460841201618,21.210705226439728,10.312411658181581,-1.4780157918408072,-2.1440955698823707,-1.7711784356487739,-2.428460461912204,-15.55304100988014,3.476483169393841,3.3655496576934305,15.446769920953406,7.171943775076016,0.09053186780036525,-1.1548987679954703,2.364428259636854,0.26748736763531944,57.31666213348089,81.44296432171426,43.72125990328834,0.0,-0.19030316166758793,-0.08513264646405062,-0.1424743029952548
4.161999999999764,hard,4.4790301878992365,21.546757723042724,10.72944332319814,-1.477882654092782,-2.390327466494993,-1.3699197903864029,-2.8651410259999657,-16.50784862117366,3.9053494046536628,3.3152292763742204,15.676714854681887,8.189986766730955,0.16633376022648838,-1.0068074034940702,2.3732661808637308,0.2633755322268171,57.30992615005199,79.15058430652218,46.35132904711366,0.0,-0.18810115707257719,-0.08602216151710453,-0.13093097130856482
4.1819999999997615,hard,4.752549464123996,21.516296346740177,11.048404128933353,-1.4811809565002299,-2.5889251777706264,-0.9889769989842412,-3.2307006601574924,-16.832020855230034,4.363679708305677,3.2885214631772413,15.785006603422744,9.161594238205033,0.2417616513351609,-0.8647681346869946,2.359394055557952,0.26020347515360454,57.20127980276462,76.3158541050493,49.064628175195054,0.0,-0.18378994987191125,-0.08703869328600902,-0.11936944064214537
4.201999999999759,hard,4.84543547766018,21.128307541326905,11.177712117486667,-1.4860049415442442,-2.757074880525847,-0.634881640092459,-3.492424563385424,-16.440874047568613,4.8257524091141315,3.2642610980678692,15.703827001783106,10.116958380405837,0.44147873821732575,-0.6307048424154981,2.1355328203493995,0.25795198284450244,55.927849660796745,71.33489821910267,52.272864518389795,0.0,-0.17755419989773918,-0.0884723242525387,-0.1079047414751525
4.221999999999757,hard,4.707365154871535,20.435638812654318,11.127133401993076,-1.4862071624858177,-2.888116521562763,-0.009487663250354675,-3.6047254479790882,-15.658832170658545,5.283899630391447,3.230214656418657,15.432392085459384,11.073903098951545,0.6283821552344148,-0.2930772542331898,1.7853044773055804,0.25652850887297673,53.481286793763196,65.16842472443288,56.087614013283456,0.0,-0.16997349555094687,-0.09077969490785115,-0.0969677089476111
4.241999999999755,hard,4.391480778704802,19.591638333177887,10.981652361273014,-1.4864590498285164,-2.9749776032060815,0.31833062719912064,-3.5784848110530394,-14.704154763132092,5.8506580975474956,3.1654900021504906,15.025203897287968,12.005059509359825,0.7606670596305244,0.07845940429889559,1.4319891857959555,0.25579546201395387,50.44454199837189,59.233455822090605,60.05412636626541,0.0,-0.16193677586095187,-0.09422228505415549,-0.08704349963195651
4.261999999999753,hard,4.047174352014824,18.791951661472098,10.858491222665652,-1.4810324032639688,-3.027284122132647,0.629066151402256,-3.493881357438612,-13.975284751617144,6.302335141011796,3.1035182560992642,14.619102368630111,12.810932060520996,0.7622130671440295,0.34879372657239266,1.2037467457036704,0.25562027299679096,47.6990167848915,55.924359422458124,63.066673672434106,0.0,-0.15417288249044156,-0.09867209000207602,-0.07845269936431713
4.2819999999997505,hard,3.79221832988716,18.12798359717652,10.838933130804424,-1.472307667340657,-3.054365043231515,0.9176438688364237,-3.424573988813099,-13.455259674234576,6.821453694433992,3.0549942441419744,14.28632305733069,13.424366061423981,0.7301863255803126,0.4791366698771515,1.0225212314119914,0.25591384064245215,45.54603056066831,54.10879216825712,64.51720217518105,0.0,-0.14701414828341663,-0.10361856684907653,-0.07114541261870092
4.301999999999748,hard,3.6193913461644955,17.46976367292997,11.047003995988236,-1.4494231784838054,-3.061225881886073,1.180852982563679,-3.3822550088542203,-12.966201492172335,7.3174521857531385,3.0056420624222424,13.992777286175365,13.874736097635493,0.6940563553359506,0.5287873444492988,0.8195001128910968,0.25660078153160387,43.690984541560276,52.5733755327787,64.85330559350395,0.0,-0.1405590075521546,-0.10856845479790411,-0.06484768282569636
4.321999999999746,hard,3.5160461802267973,16.962376104844843,11.083904907648481,-1.4248249738874652,-3.049214261890633,1.415450329629258,-3.3571686152526032,-12.505599387198204,7.7831110646645625,2.9565723299341853,13.665568095084666,14.228222182647738,0.6629770132436219,0.5361836847849568,0.6570658592588973,0.2576034852333493,42.50239017993587,51.369915186805,64.87940852161863,0.0,-0.13482144098816545,-0.11325594772845567,-0.059265086872369
4.341999999999744,hard,3.4781161378301686,16.54233811623498,11.158540317546601,-1.4054411107404863,-3.013960301392207,1.62477956412146,-3.3509814529681687,-12.079889754469866,8.22574985510002,2.895597932130497,13.307614777553631,14.496456448397662,0.6278768967518645,0.5168760459848649,0.540823261138884,0.2588602806626517,41.74591801132522,50.56167696265805,64.75571564181494,0.0,-0.1298230601756678,-0.11755821279948185,-0.054187895363417914
4.361999999999742,hard,3.4886776609448256,16.18720256555835,11.249244743618268,-1.3864255534477985,-2.9587618667210567,1.80989438072357,-3.3590457259343527,-11.693315923640295,8.648295341850195,2.8247541032799806,12.936341632815678,14.66879559994031,0.5951549318953115,0.4750038798906901,0.4538564877440349,0.26032616449234947,41.256548898012966,50.13538596484236,64.39491671770296,0.0,-0.12555147058846092,-0.12136099098975688,-0.049462467007038165
4.381999999999739,hard,3.5406655848854327,15.871123177303534,11.338222318804247,-1.3663263803896546,-2.886245368797427,1.9713444035209884,-3.3780970465339353,-11.344115105632293,9.049053199034269,2.747729872031315,12.563412917984678,14.737433794905073,0.5649612420838525,0.41135091525108025,0.38014835065380376,0.26196713355668677,40.94664081136857,50.03614304289707,63.70010945791206,0.0,-0.12192896555547007,-0.12455117621955061,-0.04495493954433132
4.401999999999737,hard,3.6338118365993926,15.582582960627143,11.418820496646273,-1.3454730797022862,-2.798085649120422,2.1095408993043048,-3.4068773231203546,-11.032751876131186,9.427396838106922,2.665358079594239,12.193376795312897,14.704511597899195,0.5352765209596857,0.3215310038623264,0.3058228221385547,0.2637543032796979,40.784489327552365,50.23716319793999,62.55000070441514,0.0,-0.1188263518886339,-0.12702434476446087,-0.04053801727562924
4.421999999999735,hard,3.7880438945910626,15.304765667884991,11.481790455631971,-1.3174215650922023,-2.699328482569787,2.225832771477741,-3.450846108468732,-10.777045851567793,9.798912636532847,2.5918603818863355,11.752026907405586,14.693542297571847,0.47540379649579384,0.16759122753830835,0.1937265821533947,0.2656504147043798,40.75416634457815,50.86353601962219,60.23062031237137,0.0,-0.11602231009973511,-0.12873987382164223,-0.03605821318068891
4.441999999999733,hard,3.976985158478497,15.065183793969119,11.547793146517884,-1.2958197682384578,-2.5778867799382805,2.320635583640655,-3.5025229349235327,-10.557432709374929,10.146933894569912,2.4883298984123075,11.380682719711547,14.507520889408957,0.42550553486798337,0.04453785925552719,0.1618134897198802,0.2676207013915864,40.910911774622434,51.74033547862463,58.63887190716017,0.0,-0.1132929064151548,-0.12959882496022326,-0.03138093172717901
4.461999999999731,hard,4.208732925193669,14.848760715401756,11.608913799389564,-1.274152890313997,-2.4468950101383253,2.393265497977265,-3.560244989629371,-10.386363344864954,10.470191775580773,2.3756337293895875,11.035278155829014,14.245516332200989,0.3751240441584024,-0.10144937688147197,0.13673353690586712,0.2696529221210727,41.214546183697735,52.85545553722647,56.78553235801712,0.0,-0.1104259031751492,-0.12944748078780707,-0.02640474728867344
4.481999999999728,hard,4.480317052343845,14.644199404565722,11.65896053171584,-1.2514337195219216,-2.305667358865838,2.4451993068126914,-3.6212678303924766,-10.263287008077626,10.75945895169134,2.246640050404689,10.711939448317413,13.912663868635477,0.3254617877535743,-0.26964788286302155,0.10969200455573598,0.27173698021856457,41.62465109178495,54.15106988700455,54.60165167633792,0.0,-0.1071781744413752,-0.12817010107024515,-0.021010360319124392
4.501999999999726,hard,4.789618966958151,14.440604401405677,11.692783928272899,-1.2267672109694554,-2.1544142550956185,2.477695831671994,-3.68111302308467,-10.192030941957789,11.007855696494497,2.0964033160371853,10.405345695781916,13.511896302495764,0.2738743607893182,-0.45917456241653165,0.078262106459972,0.27386208706239673,42.11021405577466,55.59498549948356,52.1295692690273,0.0,-0.10327338423439227,-0.1256709751784728,-0.015062532926917624
4.521999999999724,hard,5.129464568922265,14.232456251658604,11.710109424816142,-1.2001465914024694,-1.9927871206955823,2.49202645336263,-3.7336576013680323,-10.1741438601522,11.205304214705196,1.9207889665128566,10.112464208922537,13.059075337803414,0.22226243540239415,-0.6654066598485876,0.04371243865040393,0.27601582219798587,42.65463305268359,57.12448986855762,49.4688183741906,0.0,-0.0984116414022019,-0.12185321618212853,-0.008415629219960847
4.541999999999722,hard,5.485824122413449,14.012160771679849,11.710344542877124,-1.1732573240505806,-1.822349063939999,2.4887384919279505,-3.7698642963877163,-10.194386795438362,11.323495109516951,1.716528003602873,9.829002126924468,12.57000618066151,0.1836456689888486,-0.8772751790898697,-0.008398115110950703,0.27818360279599835,43.22442766526959,58.47574522198777,46.715256944796636,0.0,-0.09228407627098854,-0.11661143615495582,-0.0009273365066982664
4.56199999999972,hard,5.835751871823201,13.765495783103663,11.687322811472503,-1.1474878268963058,-1.6442972577240553,2.4686653169426673,-3.7789959902827115,-10.224672214587711,11.349096059028954,1.4850997813220372,9.543758010625021,12.062217870888766,0.1651953146465364,-1.0838537163280897,-0.08351287838157126,0.28034372992759177,43.752055794250495,59.53979287387325,44.00368272060629,0.0,-0.08459803211021494,-0.10986093499991646,0.007508691906556259
4.581999999999717,hard,6.156659908338187,13.491585337928882,11.606614342344905,-1.1261669066319655,-1.4613227697067481,2.4317402720415258,-3.752182323191788,-10.190108735931059,11.308329044289547,1.2383448581399865,9.243335676387069,11.55267804250768,0.18797504596756676,-1.2779007552707808,-0.1693471496135169,0.2824657903758982,44.26877264914455,60.301720272967074,41.490141302911674,0.0,-0.07508234529887485,-0.10154990267341417,0.016930320814177315
4.601999999999715,hard,6.417670047878913,13.180003610256868,11.379290453270885,-1.122460429665719,-1.2805339143615084,2.37577559243614,-3.6934201930871544,-9.908982653024047,11.237597099456117,1.0059718948459444,8.883664136231765,11.063057644834265,0.2966898420158774,-1.42967083404151,-0.29219627739222226,0.28451421624568696,44.55128733232028,60.448623886430134,39.49225477492163,0.0,-0.06349536016849543,-0.09176035619063105,0.027222836576138734
4.621999999999713,hard,6.551046484200469,12.71155859372554,11.073550193373515,-1.1357360905978442,-1.0998771858273644,2.304560855033426,-3.6189225709470803,-9.331965943458849,11.042372514785786,0.811898221667259,8.428451644072098,10.620012251536117,0.4723609570657182,-1.4922698810526926,-0.523048726680483,0.28643486955509306,44.03882843371516,59.070763679373044,38.353428838790705,0.0,-0.04972680481548166,-0.08075239878203647,0.03801752411703262
4.641999999999711,hard,6.4981567088744825,12.085778712452193,10.719677113317093,-1.1522962193704467,-0.9102859993783303,2.2250787564106203,-3.575640264459701,-8.625403179994063,10.712969751609624,0.6260831060753889,7.893713537186894,10.241652572061584,0.6451977697278787,-1.4794934660151313,-0.8075720379718888,0.2881346527915417,42.78048178412221,56.64926454502333,38.13134687560156,0.0,-0.03396254197779008,-0.06878065947711749,0.04876805201326473
4.661999999999709,hard,6.147696208420514,11.430518272152025,10.291881493519266,-0.3214493443813379,-1.5290686147310437,3.5106860941600058,-3.676485306899343,-7.931692220945265,10.385696588140595,0.3486970260148792,7.432430173776573,9.841282488674102,-0.3060056172374062,-1.0607538357198136,-0.18084756317668052,0.28951825278202703,39.89222956873374,20.438294145648925,54.78835471434503,37.05338148781396,-0.016714659738115478,-0.05594428985187754,0.05884009913598684
4.681999999999706,hard,4.9315382832321815,10.446049268386902,9.141674726981138,0.4324318366108645,-3.5883224971017285,8.138015604968267,-4.303395165372192,-7.6567630511898646,10.16303401294757,-0.3245553755296642,7.155412754954359,9.032211923524816,-3.183183287016081,0.43311833878005046,2.6651197642661497,0.29094529866922636,31.052926046411343,75.57236596753357,55.07101786240193,32.14484313372918,-0.0013131797594189924,-0.044187304553784175,0.06667409914180121
4.701999999999704,hard,3.8336098992166177,8.355649130585745,6.7440040338836,0.43951184235022844,-4.440017560997353,10.752217430410717,-4.389185667375906,-7.217540416570112,9.600889708542237,-0.5859036991073849,6.613330989785302,7.8895201628015945,-4.345467411709145,0.9550287951885829,2.338463663380872,0.2933786141725722,19.645473250044226,88.20424387819885,51.55248786758632,26.217595471515917,0.011588423556690545,-0.0382769858573606,0.07299906691293481
4.721999999999702,hard,3.0765621084184276,6.321756558743394,4.989345361143446,1.076425561527327,-2.882598808246888,8.388084709971125,-3.9810374724582682,-5.9617565199091445,9.02907909105144,-0.3864306986211492,6.279788596712651,7.175437403001811,-2.7028992436875487,0.2639181789829169,-0.6734807513713041,0.29654597557279566,13.100263680447013,57.41935319481973,45.610603491898736,23.246798421704355,0.02434006526464135,-0.037060909389216114,0.07916850225012126
4.7419999999997,hard,2.0019491773033913,3.1192232191470834,1.7436375676825975,1.7590496477640851,-1.2738663219974822,7.803829850942916,-3.8458123418004773,-4.053860761489691,8.823261717403424,-0.4799990620905543,6.1685586509661805,6.954816779422579,-2.0052574500868996,0.4622777781164446,-2.3871764060438556,0.29931496434648985,49.6716179296594,40.90357579429963,23.228390998220075,0.0,0.037330664044431736,-0.036374567026726146,0.08581819302115025
4.761999999999698,hard,1.8442064866809784,2.50252775935191,1.3198609091557527,2.1689247996568874,-0.1779150930352892,8.19734378225432,-3.86009985638762,-2.664877070459492,9.149182570548263,-0.686906464546525,5.846777893171346,6.885217353403915,-1.5775302611325133,0.5315069474820162,-1.8367625994733408,0.30117917564355323,51.371630108456195,42.67959725284654,27.58415702020326,0.0,0.04973872086972692,-0.03524994942061985,0.09309161789013888
4.781999999999695,hard,1.7927802980176852,2.1229738938528877,0.9940845090256261,2.295883024142733,0.8738976863488598,8.562807890468518,-3.896969569175831,-1.6180141724249548,9.677277001848054,-0.858468624181354,5.2418706139205336,7.115367339154306,-1.3353398142742303,0.5330628947853882,-1.0791783632319905,0.30234638372077854,52.25738876215846,46.868558145529676,33.75398169284414,0.0,0.06112985717707555,-0.034859162471089916,0.1000524596941974
4.801999999999693,hard,1.756766192455276,1.7777628077978336,0.7131036880410537,2.325184931050593,2.1116637590104315,8.716088997310905,-3.896827171116291,-0.5585204380126472,10.15462058872121,-0.9419732572957956,4.616674136629882,7.345013664140944,-0.9460787923678102,0.4870992375641215,-0.6117143108595803,0.303097179882182,50.6281877169429,50.07596315809468,38.97319288911249,0.0,0.07151084672329931,-0.035008762084220074,0.1062582986449268
4.821999999999691,hard,1.7118465108414356,1.4329107304620066,0.46817946990675496,2.3124145081161065,3.381756126447886,8.72045950084533,-3.8812176688031967,0.47947392731970817,10.499342939162,-0.9872584829106715,3.963575496864198,7.384053798917626,-0.5287061826791338,0.39940138935160674,-0.4530469483102031,0.303604189357681,47.764154326965745,51.946332049430765,42.24599129945474,0.0,0.08104478352963221,-0.03548449477386557,0.1115946213284583
4.841999999999689,hard,1.6668286223129942,1.1038474450849534,0.2607716676604215,2.2805686540645427,4.59229098356474,8.68729718805503,-3.8634501013940015,1.4547822761142788,10.762174202969367,-1.0190712730146427,3.2061530403085943,7.301232099224382,-0.19109264560996225,0.31288555849113153,-0.37716164332890384,0.30393114009434524,44.96497104224215,53.28664774466636,44.84763270392531,0.0,0.08989001369851174,-0.03629548635215489,0.11610609382953287
4.861999999999687,hard,1.6252985516831275,0.7949235581126306,0.08955643478053232,2.2317018769769055,5.751846512365143,8.685835118116032,-3.845798486199777,2.391396235396272,10.977865117433456,-1.041857449829589,2.339411393326452,7.186285214869756,0.06477698335025375,0.25339060842018857,-0.28026257443028707,0.30411118940609927,42.75348175799223,54.29425122190053,47.50816606079957,0.0,0.0982105037972614,-0.03739011447586462,0.1198610846041892
4.881999999999684,hard,1.5907247582780013,0.4984022215314657,-0.05028533318717249,2.157745571341406,6.877004003224253,8.72974587651568,-3.8283586729625543,3.310317570825387,11.139511394927627,-1.0555245142105836,1.3835702453660126,7.060906941627044,0.2708083964903426,0.23191181620349377,-0.17713313744728926,0.3041831683467145,41.11036384035419,54.811557440023776,50.225253343335346,0.0,0.1061127042731811,-0.038646326421478736,0.12290463195267562
4.901999999999682,hard,1.566150871009597,-0.0623999083913174,-0.28723152778562727,2.0573198080604476,7.96717705184141,8.809418797163648,-3.7992454014385615,4.2019284231725536,11.245839295026986,-1.0452026022116558,0.346754301969655,6.919695876582925,0.41470979954095727,0.22977763515536448,-0.07454781256695447,0.30418793436962865,39.890031639843386,54.844227669026736,52.877147239923424,0.0,0.1136671628024048,-0.03996862694255978,0.1252456368155011
4.92199999999968,hard,1.5323791539140479,-0.3585254557126969,-0.5207186896545841,1.9326493947945145,9.031719967918523,8.913756544183379,-3.7655784112822976,5.081278299260166,11.2941183715384,-1.015992164734196,-0.7534192558417157,6.759240147841803,0.5318701370053228,0.24694342933163835,0.0003227220127034865,0.3041642494433173,38.91604809148576,54.36573135071112,55.39577595300912,0.0,0.12092181050671998,-0.041270618574122765,0.1269009907408118
4.941999999999678,hard,1.5093489777798987,-0.6336782170699848,-0.6000421647601919,1.7704134546633827,10.066028279384216,9.037528675355444,-3.735981519455116,5.934195745049761,11.302733089352657,-0.9748499424553088,-1.9160590361150316,6.584312876534772,0.6182570205960938,0.2765101923594627,0.05926300420064471,0.3041415986017939,38.158119099805155,53.58759808237511,57.83413297879659,0.0,0.12784360565884306,-0.04250450980701919,0.12787966424539826
4.961999999999676,hard,1.5047706569951589,-0.8850003084354503,-0.6355251415233442,1.6539207214251197,11.064196395748159,9.183113162741195,-3.6528445297994474,6.7785378875425035,11.264417171617776,-0.8704086743580405,-3.1464695122243773,6.4141208830231795,0.6749068153255822,0.3421078123552433,0.11471648236947145,0.30414334566115614,37.856044462127215,52.29845311733582,60.37045000110541,0.0,0.1345111655393278,-0.04361043215491414,0.12822426778537316
4.981999999999673,hard,1.4723115716071389,-1.1331726939588576,-0.6448323599769245,1.4947129134548902,12.044001578110658,9.276784818656926,-3.604103226010673,7.600015305361444,11.197743735232786,-0.7882952136672224,-4.4296831672805554,6.230357429209855,0.7011537003997103,0.39125157180661285,0.19628743239979046,0.30419427304313795,37.884494829142625,50.92362255652751,62.7977175437641,0.0,0.1409038782066635,-0.04456029396607897,0.1280245338021025
5.001999999999671,hard,1.4486678222753016,-1.3657424610158082,-0.6317559185656267,1.2409904963791007,13.001027884456823,9.352623217518056,-3.614772499160997,8.386311701606306,11.112527956148252,-0.7447074442666514,-5.740601921694755,6.025357542279401,0.718907743120422,0.4282288907840952,0.24467743600160224,0.30432388498167856,37.85655477673303,49.57439304085501,64.85581577531795,0.0,0.14666968897707025,-0.045379623532576824,0.12725048028258265
5.021999999999669,hard,1.1810634769321608,0.20221454345551892,-4.6230906254125514,0.7930719718640724,12.930646213964325,1.525559127846659,-3.2300283726393033,11.485473933528468,-0.9767481487960428,-0.021235282509884268,-3.823791692758566,-4.256877249194215,0.5667237690496666,0.43159422170290995,-5.923587753259189,0.3025105745993477,19.455350490175018,15.733909582532029,22.463664485521047,0.0,0.15374761518903077,-0.05402533760479665,0.12480958664852879
5.041999999999667,hard,0.8874634145848527,-0.5209903954826351,-4.002826689770281,0.36776244298858063,12.404640815371074,1.7768953981024733,-3.1059990251678036,11.279985631032016,-0.38510358044646864,0.5011563082501316,-5.872712529666485,-3.4308118337623217,0.0577292579757782,0.45939591787759704,-5.246004408540093,0.29829728572875536,19.5571848817185,16.674159301483485,31.220250460575503,0.0,0.16185080307557,-0.06686098048242593,0.11990325116663955
5.0619999999996645,hard,0.8249384393612753,-0.8669812111191078,-3.4455733970686477,-0.4143828545973083,13.557751439483788,3.113815475239287,-3.276716250786666,12.156261153219802,1.1860045462318123,0.9654470806020243,-9.306002974476954,-2.013435222064963,-0.5465189322217973,0.6217598918233819,-2.8410097847973703,0.29208561787885284,25.540475694751564,25.581250369044483,53.829093702328954,0.0,0.1690060328370889,-0.07949575933564142,0.11208783251862
5.081999999999662,hard,1.0353235682682365,-1.0902108821931638,-2.9600659649051835,-1.5736607987055402,16.61977672737546,5.782115739924741,-3.504761062799582,13.68570157720205,3.711241925992592,1.3789990218155252,-11.962675919275327,1.3358471453549203,-0.3016335119950801,1.0221685484878829,0.9192873560340724,0.2849421727808165,39.12292353453024,38.5842293924759,82.03745559804275,0.0,0.17448725787043862,-0.08679780284170983,0.10141382033318123
5.10199999999966,hard,1.3606396391544535,-1.5072266745481433,-2.606210289373867,-2.8156048266247984,19.3345208821927,8.651333001697335,-3.5544143661569017,14.877837735689788,5.347211373303855,1.8562075535504232,-13.036462421160923,2.5533221616882624,0.1819684288870867,1.2777063122284886,2.20412753565913,0.27815732949376387,55.12183451629349,41.430582835648366,82.61692284162909,0.0,0.17822072306208356,-0.08829874491151105,0.08936214574469722
5.121999999999658,hard,1.4589030050798988,-1.8665620818304287,-2.2035391418132697,-3.571206869186328,20.52725306548939,9.9463853208485,-3.533309432351063,15.303772246956317,6.337165744521759,2.268954301131128,-14.459746429692078,2.6902612645594592,0.18685028654282854,1.2675535039209374,2.3250013695843226,0.2722233395965297,58.84509590659564,42.45480358093312,80.30675339326551,0.0,0.1799267769292144,-0.08877210794857798,0.0774781750650233
5.141999999999656,hard,1.460291842948993,-2.1419491513731765,-1.7703015281880212,-4.067861726919233,21.275628843396458,10.357038463890655,-3.5029514902112693,15.59300387369961,7.325746839964562,2.6715470407721735,-15.821272241507689,3.084955494851906,0.20141156457646267,1.1647704182578542,2.3638876433947495,0.2672068132385374,57.344213110755646,44.602397102511674,80.49825227826761,0.0,0.17947969822312326,-0.08958050486464814,0.06596809353445679
5.1619999999996535,hard,1.4574155645206048,-2.3851380467147756,-1.3696338986671588,-4.433527963863037,21.582002214551,10.771561854194687,-3.477506997308934,15.81332731114951,8.361938868825556,3.080376717809534,-16.75164808857498,3.5067214229292185,0.2680752592594483,1.0119828909310913,2.382380904314084,0.26312416128113625,57.324453928331494,47.380734272051406,78.2295558725215,0.0,0.17684889613928392,-0.09028676529297926,0.054535764494801395
5.181999999999651,hard,1.458704392332049,-2.5847139772554435,-0.9895689923250504,-4.6812559833530765,21.521601933995683,11.08156547612209,-3.457046295991193,15.911733734270761,9.342060948422507,3.426766262780916,-17.007138013276332,3.9789501417161066,0.3542756332916569,0.8587759367054449,2.3602188245551305,0.259983991238113,57.1184663470353,50.16281795870345,75.30753412791063,0.0,0.17209312859238013,-0.09102902658182474,0.04312114254702029
5.201999999999649,hard,1.4606043074974093,-2.7540197695496325,-0.6356313083282096,-4.738507247186901,21.097198121109024,11.195046214729349,-3.4342492010081536,15.809192280673635,10.30633836745938,3.6634506381284933,-16.549444305430224,4.442711998376475,0.5430025263369981,0.5951150309194658,2.1191706703876547,0.25776369545962213,55.69817455908584,53.46802845209344,70.12189518015843,0.0,0.16542602569444492,-0.09213361803974547,0.03186614863838476
5.221999999999647,hard,1.4608637299900766,-2.884855356327659,-0.010182592231300067,-4.5653732751988585,20.378271042830768,11.132681242294895,-3.3973586954997823,15.515597759809518,11.272994657774415,3.744812655823596,-15.725398160731663,4.925734123170178,0.6987361172731108,0.23153795942334207,1.7624974241232167,0.2563647195622551,53.141905266259634,57.37085918685221,63.892849793888104,0.0,0.1574534922790764,-0.09408664905377384,0.021221198142485746
5.241999999999645,hard,1.4613169758374345,-2.9713362700450805,0.3182910680569715,-4.225942775341956,19.52639676258589,10.985095545420787,-3.3285750005493955,15.093726677789236,12.206983655105825,3.691969748406131,-14.757444497763496,5.49991779644696,0.7915284530693522,-0.15021496389169253,1.41738529303046,0.2556477207964344,50.076913719779014,61.333480711577856,58.11754170877197,0.0,0.14907171702696276,-0.09715576270628602,0.0116646332454728
5.2619999999996425,hard,1.4557970166150287,-3.023535822010655,0.6298207677711427,-3.8746796314988825,18.736529670460598,10.870726658503003,-3.2639729228420657,14.683212807326818,13.004770907129647,3.591987033919151,-14.044237442417426,5.975628582045823,0.7644935019533315,-0.4099461474840075,1.1987297725209312,0.255483377116125,47.38444739564506,64.22229800869684,55.00339924942151,0.0,0.14099075925914442,-0.10119901102058897,0.0034842417359462526
5.28199999999964,hard,1.4473684945800593,-3.0514659027562683,0.9182819063545193,-3.6178900101245346,18.082619807783672,10.860005311347308,-3.215276278657628,14.341777042002223,13.61013806620069,3.5140509461566274,-13.524322239847054,6.503476426137608,0.721502951826445,-0.5309658513298,1.0154241843831306,0.25578546268429214,45.28702959107665,65.55571182311989,53.21746278646935,0.0,0.13352542961236366,-0.10570963617296428,-0.0034010211942204693
5.301999999999638,hard,1.436110855603232,-3.05881975929951,1.1816752431486361,-3.4405319011341673,17.430280362852383,11.07494332225187,-3.165195899374069,14.032707618248246,14.057711437368509,3.4652054240395067,-13.030365735033556,7.003958241514294,0.6787640837619316,-0.5747562883653643,0.8113238530946212,0.2564781464519555,43.46855480786756,65.8357544055705,51.67961793569032,0.0,0.12678422873672465,-0.1102208890518058,-0.00927163512142974
